File: results/E_Glass/1Mass_DSC_FT/E_Glass_linear_dsc_M_FT_progressMonitor.csv
Loop,Time,r0-A,p0-C0,p1-C0,p0-Cpa,p1-Cpa,p0-Cpb,p1-Cpb,r0-E,r0-Hp,p0-K,p1-K,Value,r0-Xi,p0-eps,p1-eps,p0-ka,p1-ka,p0-kb,p1-kb,r0-n,r0-nO2,p0-rho,p1-rho,
-1,0,2.77e+12,1.0,0.0,1013.5,393.451,0.0452982,0.39117,1.52e+05,280677,15053,100000000.0,0.00126936,0.733809,0.966798,0.94,0.325168,0.0613958,0.000145536,9.56077e-05,2.68223,0.0,1683.0,1235.0,
0,163.1218,6.69e+12,1.0,0.0,1041.97,1365.3,0.0449084,0.465669,1.66e+05,98512.2,17558.7,100000000.0,0.000991929,0.733809,0.727429,0.94,0.196369,0.167221,4.99908e-05,0.000211339,2.08821,0.0,1683.0,1235.0,
1,325.4297,2.85e+12,1.0,0.0,1060.18,2074.92,0.0449567,0.325679,1.76e+05,82823.8,16306.3,100000000.0,0.000717312,0.733809,0.853472,0.94,0.315063,0.126319,2.25052e-05,0.000411487,1.08403,0.0,1683.0,1235.0,
2,483.3974,4.40e+12,1.0,0.0,1044.21,1081.1,0.0431425,0.526959,1.83e+05,84170.3,16024.5,100000000.0,0.000403842,0.733809,0.857178,0.94,0.195534,0.105028,8.01689e-05,0.000228545,0.720292,0.0,1683.0,1235.0,
3,641.6436,3.78e+12,1.0,0.0,1043.13,1140.03,0.0446201,0.518535,1.77e+05,118604,12458.8,100000000.0,0.000353024,0.733809,0.89264,0.94,0.234995,0.118524,7.4553e-05,0.000288132,1.54287,0.0,1683.0,1235.0,
4,811.3256,4.19e+12,1.0,0.0,1018.51,1493.23,0.0443613,0.574375,1.84e+05,88566.4,14817.7,100000000.0,0.000188462,0.733809,0.889413,0.94,0.274664,0.120651,6.95524e-05,0.000345664,1.26083,0.0,1683.0,1235.0,
5,978.9018,4.88e+12,1.0,0.0,1025.58,1087.03,0.0432937,0.412955,1.85e+05,97291.8,16567.7,100000000.0,0.000124001,0.733809,0.896966,0.94,0.284663,0.126629,7.6801e-05,0.000241349,1.31538,0.0,1683.0,1235.0,
6,1157.59,4.90e+12,1.0,0.0,1021.56,961.914,0.0439272,0.457612,1.84e+05,99406,14249.5,100000000.0,8.3029e-05,0.733809,0.885817,0.94,0.273998,0.118467,7.61186e-05,0.000308749,1.28927,0.0,1683.0,1235.0,
7,1334.5,4.62e+12,1.0,0.0,1021.92,1083.95,0.0439824,0.46882,1.85e+05,97039.3,15874.4,100000000.0,6.03854e-05,0.733809,0.911169,0.94,0.291907,0.114476,8.0063e-05,0.00029336,1.26725,0.0,1683.0,1235.0,
8,1510.6,4.57e+12,1.0,0.0,1022.87,1061.77,0.0439065,0.455151,1.85e+05,95239.9,16457,100000000.0,4.91856e-05,0.733809,0.905905,0.94,0.286025,0.117008,7.71507e-05,0.00032498,1.30025,0.0,1683.0,1235.0,
9,1699.63,4.65e+12,1.0,0.0,1022.1,993.467,0.0438575,0.4529,1.85e+05,98564.1,16242.4,100000000.0,4.25451e-05,0.733809,0.909819,0.94,0.29169,0.12031,7.61588e-05,0.000301395,1.26904,0.0,1683.0,1235.0,
10,1877.85,4.57e+12,1.0,0.0,1022.6,993.661,0.0439011,0.453521,1.85e+05,98029,16559.2,100000000.0,3.70106e-05,0.733809,0.909609,0.94,0.290767,0.122438,7.53982e-05,0.000302841,1.24955,0.0,1683.0,1235.0,
11,2060.23,4.57e+12,1.0,0.0,1023.06,999.251,0.0437865,0.441433,1.85e+05,98021.6,16454,100000000.0,3.41356e-05,0.733809,0.907292,0.94,0.287944,0.120406,7.53132e-05,0.000302279,1.24406,0.0,1683.0,1235.0,
12,2241.53,4.50e+12,1.0,0.0,1026.33,959.839,0.0437439,0.432482,1.85e+05,100500,14515.5,100000000.0,3.17049e-05,0.733809,0.908223,0.94,0.287441,0.115821,7.88874e-05,0.000273115,1.16521,0.0,1683.0,1235.0,
13,2415.03,4.58e+12,1.0,0.0,1027.08,950.338,0.043774,0.436561,1.85e+05,100881,15256.5,100000000.0,2.6827e-05,0.733809,0.909266,0.94,0.287421,0.1212,7.74823e-05,0.000279614,1.16534,0.0,1683.0,1235.0,
14,2585.06,4.58e+12,1.0,0.0,1030.34,905.674,0.0437418,0.42634,1.85e+05,103882,14926.2,100000000.0,2.30154e-05,0.733809,0.913621,0.94,0.290127,0.122504,7.83632e-05,0.000260204,1.08121,0.0,1683.0,1235.0,
15,2763.09,4.57e+12,1.0,0.0,1030.18,922.576,0.0437345,0.424826,1.85e+05,102946,14812.7,100000000.0,2.12238e-05,0.733809,0.913035,0.94,0.288499,0.121977,7.84335e-05,0.000262805,1.08214,0.0,1683.0,1235.0,
16,2939.38,4.60e+12,1.0,0.0,1033.5,896.609,0.0437082,0.415529,1.85e+05,105798,13862,100000000.0,1.975e-05,0.733809,0.915721,0.94,0.288609,0.12323,8.02658e-05,0.000246658,1.00247,0.0,1683.0,1235.0,
17,3122.09,4.56e+12,1.0,0.0,1032.15,888.604,0.0437691,0.420011,1.85e+05,105799,14396.8,100000000.0,1.90191e-05,0.733809,0.91584,0.94,0.289833,0.124635,7.88375e-05,0.000247738,0.973645,0.0,1683.0,1235.0,
18,3303.25,4.54e+12,1.0,0.0,1031.42,884.772,0.0437307,0.415995,1.85e+05,105928,13691.6,100000000.0,1.83915e-05,0.733809,0.914869,0.94,0.289332,0.121117,8.04606e-05,0.000246034,0.956209,0.0,1683.0,1235.0,
19,3503.78,4.49e+12,1.0,0.0,1029.92,894.177,0.0437685,0.419522,1.85e+05,105425,13831.5,100000000.0,1.80217e-05,0.733809,0.913625,0.94,0.28875,0.121215,7.95444e-05,0.000250396,0.951799,0.0,1683.0,1235.0,
20,3683.27,4.60e+12,1.0,0.0,1031.48,895.132,0.0437275,0.415642,1.85e+05,105384,13480,100000000.0,1.77289e-05,0.733809,0.914027,0.94,0.288349,0.121381,8.06647e-05,0.000249056,0.968939,0.0,1683.0,1235.0,
21,3868.24,4.66e+12,1.0,0.0,1032.5,895.814,0.0436959,0.413082,1.85e+05,105302,13401,100000000.0,1.76588e-05,0.733809,0.914727,0.94,0.288337,0.121698,8.1263e-05,0.000247157,0.966237,0.0,1683.0,1235.0,
22,4076.26,4.61e+12,1.0,0.0,1032.54,896.272,0.0436997,0.413072,1.85e+05,105211,13231.4,100000000.0,1.74542e-05,0.733809,0.914642,0.94,0.287748,0.120235,8.16023e-05,0.00024879,0.962722,0.0,1683.0,1235.0,
23,4262.06,4.74e+12,1.0,0.0,1032.28,904.084,0.0436777,0.411771,1.85e+05,104899,12854,100000000.0,1.72238e-05,0.733809,0.914477,0.94,0.28756,0.120188,8.24661e-05,0.000250753,0.973148,0.0,1683.0,1235.0,
24,4478.69,4.88e+12,1.0,0.0,1033.75,901.646,0.0436248,0.403034,1.86e+05,105050,12181.3,100000000.0,1.68323e-05,0.733809,0.915536,0.94,0.287476,0.121707,8.36755e-05,0.000247458,0.970865,0.0,1683.0,1235.0,
25,4679.84,4.99e+12,1.0,0.0,1034.11,904.232,0.0435962,0.398779,1.86e+05,105096,11544.8,100000000.0,1.6473e-05,0.733809,0.916042,0.94,0.287249,0.121708,8.48174e-05,0.000246294,0.96503,0.0,1683.0,1235.0,
26,4867.22,5.16e+12,1.0,0.0,1034.21,911.61,0.0435608,0.388592,1.86e+05,105235,10341.5,100000000.0,1.57539e-05,0.733809,0.916442,0.94,0.286778,0.121812,8.64553e-05,0.000247029,0.962098,0.0,1683.0,1235.0,
27,5052.52,5.28e+12,1.0,0.0,1033.81,921.911,0.0435713,0.385134,1.86e+05,105226,9689.91,100000000.0,1.53059e-05,0.733809,0.916844,0.94,0.286564,0.122401,8.72158e-05,0.000248702,0.965256,0.0,1683.0,1235.0,
28,5245.22,5.23e+12,1.0,0.0,1033.31,926.003,0.0435889,0.38802,1.86e+05,105024,9952.34,100000000.0,1.51737e-05,0.733809,0.916335,0.94,0.286514,0.121732,8.67094e-05,0.000250535,0.974043,0.0,1683.0,1235.0,
29,5416.91,5.30e+12,1.0,0.0,1033.53,928.287,0.0435731,0.382476,1.86e+05,105141,9373.51,100000000.0,1.5087e-05,0.733809,0.916731,0.94,0.286328,0.122113,8.74056e-05,0.000250215,0.967282,0.0,1683.0,1235.0,
30,5612.82,5.32e+12,1.0,0.0,1033.58,932.91,0.0435691,0.3812,1.86e+05,105147,9244.8,100000000.0,1.48905e-05,0.733809,0.916727,0.94,0.28623,0.121798,8.75726e-05,0.000251985,0.98132,0.0,1683.0,1235.0,
31,5806.3,5.30e+12,1.0,0.0,1033.54,931.94,0.0435706,0.382383,1.86e+05,105122,9385.43,100000000.0,1.48207e-05,0.733809,0.916599,0.94,0.286234,0.121693,8.7389e-05,0.000252294,0.984333,0.0,1683.0,1235.0,
32,6020.47,5.32e+12,1.0,0.0,1033.5,935.362,0.0435631,0.380561,1.86e+05,105081,9217.07,100000000.0,1.47972e-05,0.733809,0.916547,0.94,0.286142,0.12151,8.75406e-05,0.000253274,0.990143,0.0,1683.0,1235.0,
33,6198.39,5.29e+12,1.0,0.0,1033.34,933.967,0.0435687,0.381735,1.86e+05,105068,9374.71,100000000.0,1.47724e-05,0.733809,0.916354,0.94,0.286203,0.121378,8.72839e-05,0.000253396,0.987681,0.0,1683.0,1235.0,
34,6388.36,5.30e+12,1.0,0.0,1033.48,933.257,0.0435605,0.379942,1.86e+05,105111,9218.91,100000000.0,1.47333e-05,0.733809,0.916456,0.94,0.286169,0.121567,8.74516e-05,0.000252611,0.984292,0.0,1683.0,1235.0,
35,6568.94,3.79e+12,1.0,0.0,1037.81,902.528,0.0428677,0.415541,1.84e+05,104693,11198.8,100000000.0,1.32688e-05,0.733809,0.917468,0.94,0.292979,0.122882,7.08827e-05,0.000250103,0.957085,0.0,1683.0,1235.0,
36,6755.27,3.60e+12,1.0,0.0,1042.44,918.428,0.0424673,0.417587,1.84e+05,103802,9654.33,100000000.0,1.11836e-05,0.733809,0.919965,0.94,0.296143,0.133703,6.53559e-05,0.000238812,0.999665,0.0,1683.0,1235.0,
37,6937.18,3.48e+12,1.0,0.0,1044.29,905.591,0.0421255,0.43435,1.84e+05,103280,10863.7,100000000.0,1.09813e-05,0.733809,0.920858,0.94,0.299617,0.143703,5.93802e-05,0.000223702,1.00821,0.0,1683.0,1235.0,
38,7107.61,3.35e+12,1.0,0.0,1047.15,898.326,0.0419865,0.430138,1.83e+05,103555,9642.44,100000000.0,9.88797e-06,0.733809,0.922514,0.94,0.300064,0.141618,5.83851e-05,0.000223345,0.984374,0.0,1683.0,1235.0,
39,7288.87,3.27e+12,1.0,0.0,1050.12,910.512,0.0419525,0.434908,1.83e+05,102512,9646.26,100000000.0,9.41419e-06,0.733809,0.924294,0.94,0.301511,0.146538,5.58435e-05,0.000219909,1.00868,0.0,1683.0,1235.0,
40,7460.28,3.27e+12,1.0,0.0,1050.12,900.182,0.0420763,0.436822,1.83e+05,102552,10216.1,100000000.0,8.95353e-06,0.733809,0.924072,0.94,0.300397,0.142202,5.70825e-05,0.00022174,0.989892,0.0,1683.0,1235.0,
41,7661.73,3.20e+12,1.0,0.0,1053.1,889.325,0.0418916,0.4512,1.83e+05,102345,10501.8,100000000.0,8.05299e-06,0.733809,0.925275,0.94,0.302477,0.152286,5.25095e-05,0.000207682,1.00113,0.0,1683.0,1235.0,
42,7825.68,3.16e+12,1.0,0.0,1054.79,887.899,0.0418021,0.457967,1.83e+05,102198,10514,100000000.0,8.00004e-06,0.733809,0.926054,0.94,0.303471,0.157362,5.0446e-05,0.000201335,1.01437,0.0,1683.0,1235.0,
43,8007.04,3.12e+12,1.0,0.0,1055.72,887.567,0.0417085,0.457669,1.83e+05,102077,10324.7,100000000.0,7.71815e-06,0.733809,0.926592,0.94,0.304036,0.158071,4.95336e-05,0.000200239,1.01211,0.0,1683.0,1235.0,
44,8190.48,3.07e+12,1.0,0.0,1057.55,882.474,0.0415337,0.464133,1.83e+05,101828,10539.1,100000000.0,7.46297e-06,0.733809,0.927326,0.94,0.30558,0.163314,4.66435e-05,0.000192085,1.016,0.0,1683.0,1235.0,
45,8371.86,3.26e+12,1.0,0.0,1061.74,886.478,0.0418561,0.457433,1.83e+05,101677,10647.8,100000000.0,6.73158e-06,0.733809,0.930106,0.94,0.306538,0.134207,4.73362e-05,0.00023264,1.01185,0.0,1683.0,1235.0,
46,8558.98,3.39e+12,1.0,0.0,1073.33,882.526,0.0418989,0.458502,1.83e+05,101009,10903.4,100000000.0,5.83309e-06,0.733809,0.937056,0.94,0.31147,0.0953763,4.24451e-05,0.000284788,1.0076,0.0,1683.0,1235.0,
47,8737.96,3.25e+12,1.0,0.0,1077.57,868.383,0.041712,0.47511,1.83e+05,100832,11595.2,100000000.0,5.02249e-06,0.733809,0.939558,0.94,0.314023,0.0989577,3.80832e-05,0.000277672,1.00846,0.0,1683.0,1235.0,
48,8911.37,3.40e+12,1.0,0.0,1082.66,868.028,0.041917,0.473159,1.83e+05,100563,11732.2,100000000.0,5.01318e-06,0.733809,0.942648,0.94,0.316338,0.0754661,3.63886e-05,0.000309843,1.00901,0.0,1683.0,1235.0,
49,9083.32,3.23e+12,1.0,0.0,1076.96,872.281,0.0414378,0.473792,1.83e+05,100738,12208.6,100000000.0,4.7052e-06,0.733809,0.938863,0.94,0.315156,0.0924356,3.54569e-05,0.000288406,1.01478,0.0,1683.0,1235.0,
50,9249.15,3.35e+12,1.0,0.0,1081.89,874.536,0.0415961,0.473266,1.83e+05,100312,12591.3,100000000.0,4.43745e-06,0.733809,0.94184,0.94,0.317555,0.0695047,3.29721e-05,0.000321013,1.01958,0.0,1683.0,1235.0,
51,9418.69,3.40e+12,1.0,0.0,1081.69,879.63,0.0413901,0.468741,1.83e+05,100220,13174.8,100000000.0,4.04787e-06,0.733809,0.941643,0.94,0.317866,0.0556213,3.25985e-05,0.000341156,1.02003,0.0,1683.0,1235.0,
52,9583.31,3.43e+12,1.0,0.0,1081.7,880.992,0.0413114,0.465996,1.83e+05,100192,13436.7,100000000.0,3.65502e-06,0.733809,0.941717,0.94,0.317684,0.0452611,3.28774e-05,0.000354953,1.01493,0.0,1683.0,1235.0,
53,9748.39,3.42e+12,1.0,0.0,1081.45,889.225,0.0409754,0.461888,1.83e+05,99851.6,14053.7,100000000.0,3.49197e-06,0.733809,0.941334,0.94,0.317994,0.0323962,3.17825e-05,0.000374093,1.01927,0.0,1683.0,1235.0,
54,9925.59,3.43e+12,1.0,0.0,1081.71,890.412,0.040951,0.460576,1.83e+05,99850.7,13986.5,100000000.0,3.36749e-06,0.733809,0.941449,0.94,0.317622,0.030489,3.23955e-05,0.000377021,1.02014,0.0,1683.0,1235.0,
55,10096.2,3.49e+12,1.0,0.0,1081.05,889.997,0.0410936,0.460778,1.83e+05,99849.5,13798.8,100000000.0,3.26245e-06,0.733809,0.940999,0.94,0.317431,0.0276017,3.23534e-05,0.000381283,1.022,0.0,1683.0,1235.0,
56,10273.3,3.46e+12,1.0,0.0,1081.76,889.639,0.0409556,0.462115,1.83e+05,99775.1,13903.1,100000000.0,3.23773e-06,0.733809,0.941284,0.94,0.317837,0.0255635,3.1494e-05,0.000384277,1.02361,0.0,1683.0,1235.0,
57,10442.8,3.40e+12,1.0,0.0,1079.49,891.63,0.040774,0.458047,1.83e+05,99915.5,13362,100000000.0,3.05614e-06,0.733809,0.939868,0.94,0.316462,0.0268454,3.29816e-05,0.000382113,1.01963,0.0,1683.0,1235.0,
58,10624.7,3.45e+12,1.0,0.0,1080.04,890.139,0.040971,0.458784,1.83e+05,99939.8,12826.2,100000000.0,2.89309e-06,0.733809,0.940217,0.94,0.316101,0.0250892,3.38035e-05,0.000384637,1.02042,0.0,1683.0,1235.0,
59,10796.5,3.40e+12,1.0,0.0,1078.02,893.104,0.0408038,0.454976,1.83e+05,99979.2,12427.1,100000000.0,2.85146e-06,0.733809,0.938911,0.94,0.315017,0.0254589,3.46167e-05,0.000384002,1.01855,0.0,1683.0,1235.0,
60,10958.9,3.41e+12,1.0,0.0,1077.59,892.967,0.0407946,0.454692,1.83e+05,100023,12355,100000000.0,2.74727e-06,0.733809,0.938555,0.94,0.314861,0.0245804,3.47122e-05,0.0003854,1.01801,0.0,1683.0,1235.0,
61,11133.5,3.38e+12,1.0,0.0,1077,893.463,0.0407029,0.454267,1.83e+05,100011,12245.8,100000000.0,2.69112e-06,0.733809,0.938081,0.94,0.314725,0.0245622,3.44351e-05,0.000385514,1.01798,0.0,1683.0,1235.0,
62,11308.5,3.40e+12,1.0,0.0,1077.22,891.942,0.0407715,0.456456,1.83e+05,99964.8,12358.2,100000000.0,2.68155e-06,0.733809,0.938135,0.94,0.315022,0.0240049,3.38545e-05,0.000386388,1.01875,0.0,1683.0,1235.0,
63,11479.9,3.39e+12,1.0,0.0,1076.88,892.794,0.0407391,0.455298,1.83e+05,99985.4,12236.3,100000000.0,2.66173e-06,0.733809,0.937922,0.94,0.314718,0.0238583,3.42964e-05,0.000386599,1.01862,0.0,1683.0,1235.0,
64,11643,3.38e+12,1.0,0.0,1076.42,892.567,0.0407114,0.455603,1.83e+05,99994.2,12195.2,100000000.0,2.65298e-06,0.733809,0.937565,0.94,0.314605,0.0237863,3.41926e-05,0.000386731,1.01823,0.0,1683.0,1235.0,
65,11809.7,3.38e+12,1.0,0.0,1076.29,892.267,0.0406974,0.455737,1.83e+05,100011,12143.1,100000000.0,2.65034e-06,0.733809,0.937463,0.94,0.314587,0.0239726,3.4108e-05,0.000386443,1.01779,0.0,1683.0,1235.0,
66,11970.5,3.38e+12,1.0,0.0,1075.5,896.354,0.0407373,0.451828,1.83e+05,99969.6,12095.4,100000000.0,2.58329e-06,0.733809,0.936939,0.94,0.314655,0.0242034,3.32472e-05,0.000386408,1.01833,0.0,1683.0,1235.0,
67,12142.9,3.38e+12,1.0,0.0,1075.03,898.4,0.0407266,0.449621,1.83e+05,99986.2,11989.1,100000000.0,2.56724e-06,0.733809,0.936642,0.94,0.314478,0.024541,3.32772e-05,0.000386142,1.01831,0.0,1683.0,1235.0,
68,12309.7,3.37e+12,1.0,0.0,1074.6,898.512,0.0407156,0.449663,1.83e+05,100006,11976.1,100000000.0,2.55463e-06,0.733809,0.936319,0.94,0.314437,0.0242375,3.30434e-05,0.000386689,1.01824,0.0,1683.0,1235.0,
69,12485.3,3.37e+12,1.0,0.0,1074.62,899.062,0.0406902,0.449285,1.83e+05,99993.9,11886.5,100000000.0,2.54565e-06,0.733809,0.936301,0.94,0.314458,0.0238199,3.29597e-05,0.000387417,1.01853,0.0,1683.0,1235.0,
70,12661.5,3.37e+12,1.0,0.0,1074.16,899.448,0.0406987,0.448686,1.83e+05,100004,11852.6,100000000.0,2.543e-06,0.733809,0.935954,0.94,0.314381,0.0237619,3.27381e-05,0.000387577,1.01864,0.0,1683.0,1235.0,
71,12839,3.37e+12,1.0,0.0,1074.16,899.201,0.0406939,0.449374,1.83e+05,99997.9,11839.4,100000000.0,2.53966e-06,0.733809,0.935975,0.94,0.314348,0.0239461,3.28336e-05,0.000387266,1.01862,0.0,1683.0,1235.0,
72,13032.9,3.36e+12,1.0,0.0,1074.28,900.062,0.0406854,0.448466,1.83e+05,99976.3,11841.7,100000000.0,2.53626e-06,0.733809,0.93602,0.94,0.314421,0.0237735,3.26921e-05,0.000387529,1.01889,0.0,1683.0,1235.0,
73,13207.5,3.36e+12,1.0,0.0,1073.81,903.43,0.0406976,0.443783,1.83e+05,99973.8,11849.1,100000000.0,2.52774e-06,0.733809,0.935707,0.94,0.314265,0.0238055,3.27357e-05,0.00038752,1.019,0.0,1683.0,1235.0,
74,13383,3.36e+12,1.0,0.0,1073.81,903.43,0.0406976,0.443783,1.83e+05,99973.8,11849.1,100000000.0,2.52774e-06,0.733809,0.935707,0.94,0.314265,0.0238055,3.27357e-05,0.00038752,1.019,0.0,1683.0,1235.0,
75,13585.4,3.35e+12,1.0,0.0,1073.45,907.248,0.0406984,0.438882,1.83e+05,99971.6,11823.1,100000000.0,2.52545e-06,0.733809,0.935469,0.94,0.314143,0.0238547,3.27695e-05,0.000387523,1.01897,0.0,1683.0,1235.0,
76,13759.2,3.34e+12,1.0,0.0,1073.5,910.884,0.0407032,0.434284,1.83e+05,99947.9,11840.2,100000000.0,2.52207e-06,0.733809,0.93549,0.94,0.314207,0.0237318,3.26088e-05,0.000387755,1.01915,0.0,1683.0,1235.0,
77,13922.8,3.34e+12,1.0,0.0,1073.54,910.711,0.0407116,0.434226,1.83e+05,99952.7,11863.9,100000000.0,2.52156e-06,0.733809,0.935521,0.94,0.314225,0.0237441,3.2597e-05,0.000387709,1.01902,0.0,1683.0,1235.0,
78,14086.5,3.33e+12,1.0,0.0,1073.53,913.141,0.0407156,0.431233,1.83e+05,99935.3,11858.6,100000000.0,2.5212e-06,0.733809,0.93551,0.94,0.314221,0.0237308,3.25859e-05,0.000387736,1.01915,0.0,1683.0,1235.0,
79,14253.9,3.34e+12,1.0,0.0,1073.61,911.321,0.0407123,0.433491,1.83e+05,99943.2,11860.3,100000000.0,2.52042e-06,0.733809,0.935568,0.94,0.314234,0.0237382,3.26234e-05,0.000387688,1.01906,0.0,1683.0,1235.0,
80,14420.8,3.33e+12,1.0,0.0,1073.66,913.174,0.04072,0.430893,1.83e+05,99935,11888.4,100000000.0,2.51985e-06,0.733809,0.935593,0.94,0.314236,0.0237387,3.26506e-05,0.000387666,1.01911,0.0,1683.0,1235.0,
81,14600.2,3.33e+12,1.0,0.0,1073.73,912.798,0.0407254,0.431197,1.83e+05,99939.6,11902.4,100000000.0,2.51893e-06,0.733809,0.935646,0.94,0.314251,0.0237286,3.26772e-05,0.000387639,1.01901,0.0,1683.0,1235.0,
82,14774,3.33e+12,1.0,0.0,1073.77,911.965,0.0407226,0.432256,1.83e+05,99945.3,11898.5,100000000.0,2.51858e-06,0.733809,0.935666,0.94,0.314257,0.0237278,3.26914e-05,0.000387619,1.01894,0.0,1683.0,1235.0,
83,14952.4,3.33e+12,1.0,0.0,1073.8,912.96,0.0407309,0.430767,1.83e+05,99940.2,11914.1,100000000.0,2.51807e-06,0.733809,0.935683,0.94,0.314275,0.0237331,3.26657e-05,0.00038757,1.01889,0.0,1683.0,1235.0,
84,15122.7,3.33e+12,1.0,0.0,1073.81,913.327,0.0407301,0.43028,1.83e+05,99939.7,11913.5,100000000.0,2.51793e-06,0.733809,0.935683,0.94,0.314282,0.023728,3.26471e-05,0.00038758,1.01887,0.0,1683.0,1235.0,
85,15278.6,3.32e+12,1.0,0.0,1073.81,912.906,0.0407285,0.430869,1.83e+05,99941.3,11903.8,100000000.0,2.51769e-06,0.733809,0.935688,0.94,0.314292,0.0237298,3.26219e-05,0.000387575,1.01882,0.0,1683.0,1235.0,
86,15435.6,3.32e+12,1.0,0.0,1073.76,913.62,0.0407282,0.429966,1.83e+05,99938.3,11904.4,100000000.0,2.51754e-06,0.733809,0.935651,0.94,0.314272,0.0237274,3.26272e-05,0.000387604,1.01888,0.0,1683.0,1235.0,
87,15593.1,3.32e+12,1.0,0.0,1073.43,915.008,0.0407224,0.428074,1.83e+05,99945.3,11854.9,100000000.0,2.5158e-06,0.733809,0.935424,0.94,0.314198,0.0237308,3.25549e-05,0.000387603,1.0186,0.0,1683.0,1235.0,
88,15749.3,3.31e+12,1.0,0.0,1073.3,916.426,0.0407243,0.4261,1.83e+05,99943.9,11849.9,100000000.0,2.51533e-06,0.733809,0.935331,0.94,0.314161,0.0237293,3.25431e-05,0.000387591,1.01849,0.0,1683.0,1235.0,
89,15903.7,3.31e+12,1.0,0.0,1073.36,916.371,0.0407287,0.426014,1.83e+05,99944,11864.8,100000000.0,2.51504e-06,0.733809,0.935371,0.94,0.314171,0.0237257,3.25712e-05,0.000387557,1.01845,0.0,1683.0,1235.0,
90,16056.8,3.31e+12,1.0,0.0,1073.14,919.712,0.0407541,0.421295,1.83e+05,99961.7,11807.3,100000000.0,2.51348e-06,0.733809,0.935252,0.94,0.314098,0.0237795,3.26068e-05,0.000387515,1.01795,0.0,1683.0,1235.0,
91,16219.8,3.30e+12,1.0,0.0,1073.27,920.88,0.040767,0.419478,1.83e+05,99956.2,11848.2,100000000.0,2.51223e-06,0.733809,0.935334,0.94,0.314137,0.0237717,3.26091e-05,0.00038748,1.01794,0.0,1683.0,1235.0,
92,16371.5,3.30e+12,1.0,0.0,1073.29,922.2,0.0407773,0.417488,1.83e+05,99958.2,11855.9,100000000.0,2.5119e-06,0.733809,0.935347,0.94,0.31413,0.0237746,3.26499e-05,0.000387434,1.01776,0.0,1683.0,1235.0,
93,16532.9,3.30e+12,1.0,0.0,1073.36,922.71,0.0407871,0.416697,1.83e+05,99959,11865.4,100000000.0,2.51153e-06,0.733809,0.935401,0.94,0.314146,0.0237817,3.26699e-05,0.000387431,1.01778,0.0,1683.0,1235.0,
94,16700.3,3.28e+12,1.0,0.0,1073.28,926.603,0.0408062,0.411276,1.83e+05,99962.6,11843.1,100000000.0,2.50999e-06,0.733809,0.935369,0.94,0.314118,0.0238252,3.27013e-05,0.000387381,1.01741,0.0,1683.0,1235.0,
95,16864.3,3.30e+12,1.0,0.0,1073.57,925.254,0.0408229,0.412936,1.83e+05,99956.9,11847.7,100000000.0,2.50876e-06,0.733809,0.935587,0.94,0.31417,0.0238381,3.28225e-05,0.000387291,1.01742,0.0,1683.0,1235.0,
96,17032.2,3.28e+12,1.0,0.0,1073.71,931.199,0.0408707,0.404617,1.83e+05,99941.8,11856.7,100000000.0,2.50655e-06,0.733809,0.935682,0.94,0.314228,0.0238817,3.27864e-05,0.000387153,1.01703,0.0,1683.0,1235.0,
97,17204.1,3.27e+12,1.0,0.0,1073.98,937.247,0.0409428,0.395718,1.83e+05,99931.1,11863,100000000.0,2.50398e-06,0.733809,0.935888,0.94,0.314289,0.0238966,3.28811e-05,0.00038701,1.01672,0.0,1683.0,1235.0,
98,17377.7,3.25e+12,1.0,0.0,1074.11,945.255,0.041028,0.384436,1.83e+05,99915.4,11843.3,100000000.0,2.50169e-06,0.733809,0.935995,0.94,0.314324,0.0239303,3.29177e-05,0.00038692,1.01649,0.0,1683.0,1235.0,
99,17544.7,3.24e+12,1.0,0.0,1073.81,945.75,0.0409997,0.384124,1.83e+05,99916.6,11849,100000000.0,2.49617e-06,0.733809,0.935773,0.94,0.314255,0.0238553,3.2826e-05,0.000387148,1.01678,0.0,1683.0,1235.0,
100,17713.4,3.24e+12,1.0,0.0,1074.15,951.589,0.0410644,0.375845,1.83e+05,99895.9,11837.4,100000000.0,2.49378e-06,0.733809,0.936026,0.94,0.314335,0.0238724,3.29175e-05,0.000387055,1.01664,0.0,1683.0,1235.0,
101,17884.2,3.23e+12,1.0,0.0,1074.29,955.162,0.0411166,0.370736,1.83e+05,99883.4,11839.7,100000000.0,2.49146e-06,0.733809,0.936136,0.94,0.314368,0.0238585,3.29569e-05,0.000387036,1.01665,0.0,1683.0,1235.0,
102,18053.1,3.22e+12,1.0,0.0,1074.04,952.641,0.041014,0.37472,1.83e+05,99886.8,11861.8,100000000.0,2.48745e-06,0.733809,0.935943,0.94,0.314303,0.0237999,3.28987e-05,0.000387218,1.01674,0.0,1683.0,1235.0,
103,18219.6,3.21e+12,1.0,0.0,1074.32,960.822,0.0411223,0.363162,1.83e+05,99860.8,11880.5,100000000.0,2.4831e-06,0.733809,0.936156,0.94,0.314378,0.0237343,3.29564e-05,0.000387236,1.01674,0.0,1683.0,1235.0,
104,18390.8,3.20e+12,1.0,0.0,1074.26,959.529,0.0410918,0.365148,1.83e+05,99857.8,11872.1,100000000.0,2.48264e-06,0.733809,0.936116,0.94,0.314364,0.0237312,3.2935e-05,0.000387296,1.01692,0.0,1683.0,1235.0,
105,18573.6,3.20e+12,1.0,0.0,1074.42,964.07,0.0411444,0.358713,1.83e+05,99848.1,11870.1,100000000.0,2.48152e-06,0.733809,0.936245,0.94,0.314393,0.0237254,3.30141e-05,0.000387287,1.01686,0.0,1683.0,1235.0,
106,18752.3,3.20e+12,1.0,0.0,1074.52,967.63,0.0411937,0.353468,1.83e+05,99849.6,11880.6,100000000.0,2.47946e-06,0.733809,0.936325,0.94,0.314401,0.0237328,3.30952e-05,0.000387232,1.01666,0.0,1683.0,1235.0,
107,18925.7,3.19e+12,1.0,0.0,1074.74,973.884,0.0412857,0.344419,1.83e+05,99842.9,11889.4,100000000.0,2.47573e-06,0.733809,0.936531,0.94,0.314416,0.0237306,3.32993e-05,0.00038719,1.01647,0.0,1683.0,1235.0,
108,19097,3.18e+12,1.0,0.0,1074.52,984.741,0.0414219,0.329157,1.83e+05,99826.2,11854.9,100000000.0,2.47129e-06,0.733809,0.936417,0.94,0.31437,0.0237415,3.32748e-05,0.000387108,1.01601,0.0,1683.0,1235.0,
109,19264.6,3.18e+12,1.0,0.0,1074.54,997.012,0.0415844,0.311565,1.83e+05,99819.2,11855.4,100000000.0,2.46715e-06,0.733809,0.936496,0.94,0.314327,0.0237367,3.34842e-05,0.000387037,1.01549,0.0,1683.0,1235.0,
110,19444.9,3.16e+12,1.0,0.0,1074.4,1025.57,0.0419556,0.271174,1.83e+05,99778.6,11819.8,100000000.0,2.46294e-06,0.733809,0.936532,0.94,0.314264,0.0237391,3.36701e-05,0.000386886,1.01453,0.0,1683.0,1235.0,
111,19628.5,3.15e+12,1.0,0.0,1074.02,1024.07,0.0419159,0.273586,1.83e+05,99783.8,11811.6,100000000.0,2.46061e-06,0.733809,0.936242,0.94,0.3142,0.0237441,3.34926e-05,0.000386946,1.01458,0.0,1683.0,1235.0,
112,19802.9,3.15e+12,1.0,0.0,1074.07,1021.09,0.0418757,0.277728,1.83e+05,99789.9,11827.1,100000000.0,2.45772e-06,0.733809,0.936273,0.94,0.314201,0.0237353,3.35258e-05,0.000386989,1.01473,0.0,1683.0,1235.0,
113,19973,3.14e+12,1.0,0.0,1074.14,1022.27,0.0418895,0.275999,1.83e+05,99799.2,11880.6,100000000.0,2.4547e-06,0.733809,0.936334,0.94,0.314202,0.0237336,3.36004e-05,0.000387045,1.01478,0.0,1683.0,1235.0,
114,20146.4,3.14e+12,1.0,0.0,1074.09,1029.92,0.0419987,0.265155,1.83e+05,99791.3,11878.6,100000000.0,2.4535e-06,0.733809,0.936336,0.94,0.314182,0.0237408,3.36515e-05,0.000387008,1.01457,0.0,1683.0,1235.0,
115,20318.8,3.13e+12,1.0,0.0,1074.09,1038.9,0.0421408,0.252148,1.83e+05,99777.3,11877.2,100000000.0,2.45039e-06,0.733809,0.936363,0.94,0.314188,0.0237441,3.36711e-05,0.000386908,1.01436,0.0,1683.0,1235.0,
116,20476.3,3.12e+12,1.0,0.0,1073.92,1057.13,0.0424291,0.226073,1.83e+05,99744.8,11841.7,100000000.0,2.44813e-06,0.733809,0.936314,0.94,0.314178,0.0237876,3.36291e-05,0.00038671,1.01405,0.0,1683.0,1235.0,
117,20637.2,3.11e+12,1.0,0.0,1073.95,1062.54,0.0425051,0.218401,1.83e+05,99736.1,11871.3,100000000.0,2.44662e-06,0.733809,0.936359,0.94,0.31418,0.0237704,3.36723e-05,0.000386701,1.01391,0.0,1683.0,1235.0,
118,20795.5,3.11e+12,1.0,0.0,1073.9,1061.13,0.0425251,0.220294,1.83e+05,99724.7,11878.1,100000000.0,2.44468e-06,0.733809,0.936321,0.94,0.314204,0.0237819,3.3551e-05,0.000386663,1.01424,0.0,1683.0,1235.0,
119,20958,3.11e+12,1.0,0.0,1074.11,1060.77,0.0425215,0.22072,1.83e+05,99722.4,11896.4,100000000.0,2.44406e-06,0.733809,0.936464,0.94,0.314249,0.0237711,3.36067e-05,0.00038664,1.01419,0.0,1683.0,1235.0,
120,21113.4,3.11e+12,1.0,0.0,1074.47,1068.43,0.0426484,0.209785,1.83e+05,99697.6,11916.1,100000000.0,2.44277e-06,0.733809,0.936755,0.94,0.314337,0.0237957,3.37164e-05,0.000386473,1.01402,0.0,1683.0,1235.0,
121,21273,3.11e+12,1.0,0.0,1074.19,1072.24,0.0427266,0.204713,1.83e+05,99687.6,11926.3,100000000.0,2.44153e-06,0.733809,0.936565,0.94,0.314317,0.0237969,3.35346e-05,0.000386515,1.01417,0.0,1683.0,1235.0,
122,21433.9,3.10e+12,1.0,0.0,1074.17,1071.66,0.042702,0.205679,1.83e+05,99681.8,11928.8,100000000.0,2.44118e-06,0.733809,0.936535,0.94,0.314314,0.0237894,3.35067e-05,0.000386537,1.01426,0.0,1683.0,1235.0,
123,21600.4,3.10e+12,1.0,0.0,1074.46,1078.74,0.0428189,0.195465,1.83e+05,99664.3,11946.4,100000000.0,2.44072e-06,0.733809,0.936776,0.94,0.314378,0.023786,3.36188e-05,0.00038644,1.01407,0.0,1683.0,1235.0,
124,21774.1,3.10e+12,1.0,0.0,1074.45,1082.16,0.0428543,0.190744,1.83e+05,99656,11938.7,100000000.0,2.44034e-06,0.733809,0.936775,0.94,0.314374,0.0237815,3.36336e-05,0.000386442,1.01403,0.0,1683.0,1235.0,
125,21949.1,3.10e+12,1.0,0.0,1074.51,1081.98,0.0428422,0.190939,1.83e+05,99664.5,11946,100000000.0,2.44005e-06,0.733809,0.936824,0.94,0.314365,0.0237814,3.3714e-05,0.000386451,1.01391,0.0,1683.0,1235.0,
126,22118.2,3.09e+12,1.0,0.0,1074.55,1089.47,0.0429582,0.180343,1.83e+05,99648.9,11949.9,100000000.0,2.43994e-06,0.733809,0.936886,0.94,0.314384,0.0237906,3.37309e-05,0.000386397,1.01382,0.0,1683.0,1235.0,
127,22288.3,3.09e+12,1.0,0.0,1074.55,1087.17,0.0429207,0.183581,1.83e+05,99652.8,11944.1,100000000.0,2.43966e-06,0.733809,0.936875,0.94,0.314378,0.0237852,3.37364e-05,0.000386407,1.01383,0.0,1683.0,1235.0,
128,22452.2,3.09e+12,1.0,0.0,1074.5,1082.38,0.0428419,0.190424,1.83e+05,99662.3,11941.1,100000000.0,2.43915e-06,0.733809,0.936818,0.94,0.314355,0.0237814,3.3731e-05,0.000386448,1.0139,0.0,1683.0,1235.0,
129,22618.3,3.09e+12,1.0,0.0,1074.35,1086.56,0.0428957,0.184564,1.83e+05,99659.1,11926.5,100000000.0,2.43856e-06,0.733809,0.936736,0.94,0.314305,0.0237752,3.37565e-05,0.000386455,1.01377,0.0,1683.0,1235.0,
130,22776.3,3.09e+12,1.0,0.0,1074.37,1084.28,0.0428696,0.187752,1.83e+05,99662,11930.2,100000000.0,2.43847e-06,0.733809,0.936744,0.94,0.314311,0.0237819,3.37516e-05,0.000386447,1.01384,0.0,1683.0,1235.0,
131,22942.3,3.08e+12,1.0,0.0,1074.25,1089.7,0.0429466,0.180211,1.83e+05,99652.3,11921.8,100000000.0,2.4384e-06,0.733809,0.936688,0.94,0.31428,0.0237855,3.37586e-05,0.000386439,1.01374,0.0,1683.0,1235.0,
132,23107.9,3.08e+12,1.0,0.0,1074.34,1090.43,0.0429566,0.179152,1.83e+05,99650.5,11929.4,100000000.0,2.4383e-06,0.733809,0.936751,0.94,0.314295,0.0237964,3.37987e-05,0.000386396,1.01365,0.0,1683.0,1235.0,
133,23292.8,3.08e+12,1.0,0.0,1074.39,1085.82,0.0428896,0.185616,1.83e+05,99659.4,11934,100000000.0,2.43827e-06,0.733809,0.936771,0.94,0.314308,0.0237965,3.37916e-05,0.000386408,1.0137,0.0,1683.0,1235.0,
134,23473.2,3.08e+12,1.0,0.0,1074.36,1088.28,0.0429278,0.182167,1.83e+05,99652.6,11929.9,100000000.0,2.43813e-06,0.733809,0.936757,0.94,0.31431,0.0237993,3.37678e-05,0.000386396,1.01371,0.0,1683.0,1235.0,
135,23651.1,3.08e+12,1.0,0.0,1074.39,1086.69,0.0429021,0.184376,1.83e+05,99657,11932.8,100000000.0,2.43796e-06,0.733809,0.936765,0.94,0.31431,0.0238167,3.37822e-05,0.000386368,1.01367,0.0,1683.0,1235.0,
136,23822.7,3.08e+12,1.0,0.0,1074.38,1086.75,0.0428976,0.184253,1.83e+05,99658.4,11931.8,100000000.0,2.4377e-06,0.733809,0.936759,0.94,0.314302,0.0238288,3.37968e-05,0.000386339,1.01357,0.0,1683.0,1235.0,
137,24002.8,3.07e+12,1.0,0.0,1074.38,1089.52,0.0429388,0.18032,1.83e+05,99649.6,11929,100000000.0,2.43762e-06,0.733809,0.936767,0.94,0.314312,0.0238514,3.37785e-05,0.000386272,1.0135,0.0,1683.0,1235.0,
138,24180.4,3.07e+12,1.0,0.0,1074.46,1087.77,0.0429063,0.182758,1.83e+05,99653.7,11939,100000000.0,2.43744e-06,0.733809,0.936814,0.94,0.314321,0.0238693,3.38162e-05,0.00038624,1.01343,0.0,1683.0,1235.0,
139,24361.2,3.07e+12,1.0,0.0,1074.35,1088.3,0.0429226,0.182033,1.83e+05,99655.3,11925.5,100000000.0,2.43721e-06,0.733809,0.936747,0.94,0.314294,0.0238741,3.38034e-05,0.000386242,1.01341,0.0,1683.0,1235.0,
140,24558.2,3.07e+12,1.0,0.0,1074.35,1088.3,0.0429226,0.182033,1.83e+05,99655.3,11925.5,100000000.0,2.43721e-06,0.733809,0.936747,0.94,0.314294,0.0238741,3.38034e-05,0.000386242,1.01341,0.0,1683.0,1235.0,
141,24743.5,3.07e+12,1.0,0.0,1074.35,1088.3,0.0429226,0.182033,1.83e+05,99655.3,11925.5,100000000.0,2.43721e-06,0.733809,0.936747,0.94,0.314294,0.0238741,3.38034e-05,0.000386242,1.01341,0.0,1683.0,1235.0,
142,24930.5,3.06e+12,1.0,0.0,1074.33,1087.69,0.0429124,0.182847,1.83e+05,99658.8,11924.9,100000000.0,2.43707e-06,0.733809,0.936731,0.94,0.314284,0.0239017,3.38147e-05,0.000386189,1.0133,0.0,1683.0,1235.0,
143,25133.4,3.06e+12,1.0,0.0,1074.33,1087.69,0.0429124,0.182847,1.83e+05,99658.8,11924.9,100000000.0,2.43707e-06,0.733809,0.936731,0.94,0.314284,0.0239017,3.38147e-05,0.000386189,1.0133,0.0,1683.0,1235.0,
144,25328.2,3.07e+12,1.0,0.0,1074.34,1087.92,0.0429161,0.182505,1.83e+05,99658,11925.5,100000000.0,2.43705e-06,0.733809,0.93674,0.94,0.314289,0.0238985,3.38113e-05,0.000386193,1.01331,0.0,1683.0,1235.0,
145,25522.5,3.07e+12,1.0,0.0,1074.34,1087.92,0.0429161,0.182505,1.83e+05,99658,11925.5,100000000.0,2.43705e-06,0.733809,0.93674,0.94,0.314289,0.0238985,3.38113e-05,0.000386193,1.01331,0.0,1683.0,1235.0,
146,25707.3,3.07e+12,1.0,0.0,1074.34,1087.92,0.0429161,0.182505,1.83e+05,99658,11925.5,100000000.0,2.43705e-06,0.733809,0.93674,0.94,0.314289,0.0238985,3.38113e-05,0.000386193,1.01331,0.0,1683.0,1235.0,
147,25901.1,3.06e+12,1.0,0.0,1074.34,1088.2,0.0429212,0.182114,1.83e+05,99658,11926.2,100000000.0,2.43703e-06,0.733809,0.936745,0.94,0.314286,0.0239071,3.38252e-05,0.000386175,1.01327,0.0,1683.0,1235.0,
148,26087.7,3.06e+12,1.0,0.0,1074.34,1088.2,0.0429212,0.182114,1.83e+05,99658,11926.2,100000000.0,2.43703e-06,0.733809,0.936745,0.94,0.314286,0.0239071,3.38252e-05,0.000386175,1.01327,0.0,1683.0,1235.0,
149,26292.5,3.06e+12,1.0,0.0,1074.32,1087.89,0.0429182,0.182532,1.83e+05,99660.3,11922.9,100000000.0,2.43701e-06,0.733809,0.936726,0.94,0.314276,0.0239229,3.38282e-05,0.000386147,1.01321,0.0,1683.0,1235.0,
150,26497.3,3.06e+12,1.0,0.0,1074.32,1087.89,0.0429182,0.182532,1.83e+05,99660.3,11922.9,100000000.0,2.43701e-06,0.733809,0.936726,0.94,0.314276,0.0239229,3.38282e-05,0.000386147,1.01321,0.0,1683.0,1235.0,
151,26684.4,3.06e+12,1.0,0.0,1074.32,1087.89,0.0429182,0.182532,1.83e+05,99660.3,11922.9,100000000.0,2.43701e-06,0.733809,0.936726,0.94,0.314276,0.0239229,3.38282e-05,0.000386147,1.01321,0.0,1683.0,1235.0,
152,26877.6,3.06e+12,1.0,0.0,1074.32,1087.89,0.0429182,0.182532,1.83e+05,99660.3,11922.9,100000000.0,2.43701e-06,0.733809,0.936726,0.94,0.314276,0.0239229,3.38282e-05,0.000386147,1.01321,0.0,1683.0,1235.0,
153,27064.4,3.06e+12,1.0,0.0,1074.32,1087.89,0.0429182,0.182532,1.83e+05,99660.3,11922.9,100000000.0,2.43701e-06,0.733809,0.936726,0.94,0.314276,0.0239229,3.38282e-05,0.000386147,1.01321,0.0,1683.0,1235.0,
154,27243.8,3.06e+12,1.0,0.0,1074.32,1087.89,0.0429182,0.182532,1.83e+05,99660.3,11922.9,100000000.0,2.43701e-06,0.733809,0.936726,0.94,0.314276,0.0239229,3.38282e-05,0.000386147,1.01321,0.0,1683.0,1235.0,
155,27416.8,3.06e+12,1.0,0.0,1074.32,1087.89,0.0429182,0.182532,1.83e+05,99660.3,11922.9,100000000.0,2.43701e-06,0.733809,0.936726,0.94,0.314276,0.0239229,3.38282e-05,0.000386147,1.01321,0.0,1683.0,1235.0,
156,27594.6,3.06e+12,1.0,0.0,1074.32,1087.89,0.0429182,0.182532,1.83e+05,99660.3,11922.9,100000000.0,2.43701e-06,0.733809,0.936726,0.94,0.314276,0.0239229,3.38282e-05,0.000386147,1.01321,0.0,1683.0,1235.0,
157,27765.9,3.06e+12,1.0,0.0,1074.32,1087.62,0.0429146,0.18294,1.83e+05,99659.2,11923.4,100000000.0,2.43696e-06,0.733809,0.936727,0.94,0.314282,0.0239066,3.38134e-05,0.000386182,1.0133,0.0,1683.0,1235.0,
158,27944.6,3.06e+12,1.0,0.0,1074.32,1087.62,0.0429146,0.18294,1.83e+05,99659.2,11923.4,100000000.0,2.43696e-06,0.733809,0.936727,0.94,0.314282,0.0239066,3.38134e-05,0.000386182,1.0133,0.0,1683.0,1235.0,
159,28123.4,3.06e+12,1.0,0.0,1074.31,1087.58,0.0429157,0.18297,1.83e+05,99661.3,11922.1,100000000.0,2.43693e-06,0.733809,0.936721,0.94,0.314274,0.0239316,3.38279e-05,0.000386133,1.0132,0.0,1683.0,1235.0,
160,28305.1,3.06e+12,1.0,0.0,1074.32,1087.9,0.0429199,0.182537,1.83e+05,99659.7,11923.7,100000000.0,2.43691e-06,0.733809,0.936732,0.94,0.314278,0.0239217,3.38303e-05,0.000386153,1.01323,0.0,1683.0,1235.0,
161,28493.1,3.06e+12,1.0,0.0,1074.36,1088.65,0.0429301,0.181466,1.83e+05,99658.4,11929.1,100000000.0,2.43691e-06,0.733809,0.936761,0.94,0.314285,0.023918,3.38468e-05,0.000386153,1.01322,0.0,1683.0,1235.0,
162,28681.4,3.06e+12,1.0,0.0,1074.36,1088.65,0.0429301,0.181466,1.83e+05,99658.4,11929.1,100000000.0,2.43691e-06,0.733809,0.936761,0.94,0.314285,0.023918,3.38468e-05,0.000386153,1.01322,0.0,1683.0,1235.0,
163,28853.1,3.06e+12,1.0,0.0,1074.36,1088.65,0.0429301,0.181466,1.83e+05,99658.4,11929.1,100000000.0,2.43691e-06,0.733809,0.936761,0.94,0.314285,0.023918,3.38468e-05,0.000386153,1.01322,0.0,1683.0,1235.0,
164,29032.4,3.06e+12,1.0,0.0,1074.34,1088.49,0.0429291,0.18169,1.83e+05,99659.1,11926,100000000.0,2.43687e-06,0.733809,0.936747,0.94,0.314279,0.0239277,3.38466e-05,0.000386138,1.01319,0.0,1683.0,1235.0,
165,29212.1,3.06e+12,1.0,0.0,1074.34,1088.49,0.0429291,0.18169,1.83e+05,99659.1,11926,100000000.0,2.43687e-06,0.733809,0.936747,0.94,0.314279,0.0239277,3.38466e-05,0.000386138,1.01319,0.0,1683.0,1235.0,
166,29379.1,3.06e+12,1.0,0.0,1074.37,1088.94,0.0429353,0.18104,1.83e+05,99658.2,11929.9,100000000.0,2.43685e-06,0.733809,0.936768,0.94,0.314284,0.0239251,3.38578e-05,0.000386141,1.01319,0.0,1683.0,1235.0,
167,29549.8,3.06e+12,1.0,0.0,1074.35,1088.55,0.0429295,0.181601,1.83e+05,99658.8,11927.3,100000000.0,2.43683e-06,0.733809,0.936752,0.94,0.314281,0.0239258,3.38481e-05,0.000386144,1.0132,0.0,1683.0,1235.0,
168,29721.4,3.06e+12,1.0,0.0,1074.35,1088.55,0.0429295,0.181601,1.83e+05,99658.8,11927.3,100000000.0,2.43683e-06,0.733809,0.936752,0.94,0.314281,0.0239258,3.38481e-05,0.000386144,1.0132,0.0,1683.0,1235.0,
169,29898.8,3.06e+12,1.0,0.0,1074.35,1088.55,0.0429295,0.181601,1.83e+05,99658.8,11927.3,100000000.0,2.43683e-06,0.733809,0.936752,0.94,0.314281,0.0239258,3.38481e-05,0.000386144,1.0132,0.0,1683.0,1235.0,
170,30142.9,3.06e+12,1.0,0.0,1074.35,1088.55,0.0429295,0.181601,1.83e+05,99658.8,11927.3,100000000.0,2.43683e-06,0.733809,0.936752,0.94,0.314281,0.0239258,3.38481e-05,0.000386144,1.0132,0.0,1683.0,1235.0,
171,30398.7,3.06e+12,1.0,0.0,1074.35,1088.55,0.0429295,0.181601,1.83e+05,99658.8,11927.3,100000000.0,2.43683e-06,0.733809,0.936752,0.94,0.314281,0.0239258,3.38481e-05,0.000386144,1.0132,0.0,1683.0,1235.0,
172,30608.8,3.06e+12,1.0,0.0,1074.35,1088.55,0.0429295,0.181601,1.83e+05,99658.8,11927.3,100000000.0,2.43683e-06,0.733809,0.936752,0.94,0.314281,0.0239258,3.38481e-05,0.000386144,1.0132,0.0,1683.0,1235.0,
173,30784.1,3.06e+12,1.0,0.0,1074.38,1089.1,0.0429385,0.180819,1.83e+05,99658.3,11931.5,100000000.0,2.43674e-06,0.733809,0.936776,0.94,0.314281,0.0239427,3.38773e-05,0.000386117,1.01314,0.0,1683.0,1235.0,
174,30955.3,3.06e+12,1.0,0.0,1074.38,1089.1,0.0429385,0.180819,1.83e+05,99658.3,11931.5,100000000.0,2.43674e-06,0.733809,0.936776,0.94,0.314281,0.0239427,3.38773e-05,0.000386117,1.01314,0.0,1683.0,1235.0,
175,31123.1,3.06e+12,1.0,0.0,1074.38,1089.1,0.0429385,0.180819,1.83e+05,99658.3,11931.5,100000000.0,2.43674e-06,0.733809,0.936776,0.94,0.314281,0.0239427,3.38773e-05,0.000386117,1.01314,0.0,1683.0,1235.0,
176,31282.7,3.06e+12,1.0,0.0,1074.38,1089.1,0.0429385,0.180819,1.83e+05,99658.3,11931.5,100000000.0,2.43674e-06,0.733809,0.936776,0.94,0.314281,0.0239427,3.38773e-05,0.000386117,1.01314,0.0,1683.0,1235.0,
177,31447.6,3.06e+12,1.0,0.0,1074.38,1089.1,0.0429385,0.180819,1.83e+05,99658.3,11931.5,100000000.0,2.43674e-06,0.733809,0.936776,0.94,0.314281,0.0239427,3.38773e-05,0.000386117,1.01314,0.0,1683.0,1235.0,
178,31615.2,3.06e+12,1.0,0.0,1074.38,1089.1,0.0429385,0.180819,1.83e+05,99658.3,11931.5,100000000.0,2.43674e-06,0.733809,0.936776,0.94,0.314281,0.0239427,3.38773e-05,0.000386117,1.01314,0.0,1683.0,1235.0,
179,31777.4,3.06e+12,1.0,0.0,1074.38,1089.1,0.0429385,0.180819,1.83e+05,99658.3,11931.5,100000000.0,2.43674e-06,0.733809,0.936776,0.94,0.314281,0.0239427,3.38773e-05,0.000386117,1.01314,0.0,1683.0,1235.0,
180,31948.9,3.06e+12,1.0,0.0,1074.38,1089.1,0.0429385,0.180819,1.83e+05,99658.3,11931.5,100000000.0,2.43674e-06,0.733809,0.936776,0.94,0.314281,0.0239427,3.38773e-05,0.000386117,1.01314,0.0,1683.0,1235.0,
181,32127.8,3.06e+12,1.0,0.0,1074.38,1089.1,0.0429385,0.180819,1.83e+05,99658.3,11931.5,100000000.0,2.43674e-06,0.733809,0.936776,0.94,0.314281,0.0239427,3.38773e-05,0.000386117,1.01314,0.0,1683.0,1235.0,
182,32307.5,3.06e+12,1.0,0.0,1074.38,1089.1,0.0429385,0.180819,1.83e+05,99658.3,11931.5,100000000.0,2.43674e-06,0.733809,0.936776,0.94,0.314281,0.0239427,3.38773e-05,0.000386117,1.01314,0.0,1683.0,1235.0,
183,32490.5,3.06e+12,1.0,0.0,1074.38,1089.1,0.0429385,0.180819,1.83e+05,99658.3,11931.5,100000000.0,2.43674e-06,0.733809,0.936776,0.94,0.314281,0.0239427,3.38773e-05,0.000386117,1.01314,0.0,1683.0,1235.0,
184,32678.4,3.06e+12,1.0,0.0,1074.38,1089.1,0.0429385,0.180819,1.83e+05,99658.3,11931.5,100000000.0,2.43674e-06,0.733809,0.936776,0.94,0.314281,0.0239427,3.38773e-05,0.000386117,1.01314,0.0,1683.0,1235.0,
185,32849.3,3.06e+12,1.0,0.0,1074.38,1089.1,0.0429385,0.180819,1.83e+05,99658.3,11931.5,100000000.0,2.43674e-06,0.733809,0.936776,0.94,0.314281,0.0239427,3.38773e-05,0.000386117,1.01314,0.0,1683.0,1235.0,
186,33018.1,3.06e+12,1.0,0.0,1074.38,1089.1,0.0429385,0.180819,1.83e+05,99658.3,11931.5,100000000.0,2.43674e-06,0.733809,0.936776,0.94,0.314281,0.0239427,3.38773e-05,0.000386117,1.01314,0.0,1683.0,1235.0,
187,33193.7,3.06e+12,1.0,0.0,1074.38,1089.1,0.0429385,0.180819,1.83e+05,99658.3,11931.5,100000000.0,2.43674e-06,0.733809,0.936776,0.94,0.314281,0.0239427,3.38773e-05,0.000386117,1.01314,0.0,1683.0,1235.0,
188,33363.9,3.06e+12,1.0,0.0,1074.38,1089.1,0.0429385,0.180819,1.83e+05,99658.3,11931.5,100000000.0,2.43674e-06,0.733809,0.936776,0.94,0.314281,0.0239427,3.38773e-05,0.000386117,1.01314,0.0,1683.0,1235.0,
189,33527,3.06e+12,1.0,0.0,1074.38,1089.1,0.0429385,0.180819,1.83e+05,99658.3,11931.5,100000000.0,2.43674e-06,0.733809,0.936776,0.94,0.314281,0.0239427,3.38773e-05,0.000386117,1.01314,0.0,1683.0,1235.0,
190,33688.6,3.06e+12,1.0,0.0,1074.38,1089.1,0.0429385,0.180819,1.83e+05,99658.3,11931.5,100000000.0,2.43674e-06,0.733809,0.936776,0.94,0.314281,0.0239427,3.38773e-05,0.000386117,1.01314,0.0,1683.0,1235.0,
191,33854.1,3.06e+12,1.0,0.0,1074.38,1089.1,0.0429385,0.180819,1.83e+05,99658.3,11931.5,100000000.0,2.43674e-06,0.733809,0.936776,0.94,0.314281,0.0239427,3.38773e-05,0.000386117,1.01314,0.0,1683.0,1235.0,
192,34031.1,3.06e+12,1.0,0.0,1074.38,1089.1,0.0429385,0.180819,1.83e+05,99658.3,11931.5,100000000.0,2.43674e-06,0.733809,0.936776,0.94,0.314281,0.0239427,3.38773e-05,0.000386117,1.01314,0.0,1683.0,1235.0,
193,34197.2,3.06e+12,1.0,0.0,1074.38,1089.1,0.0429385,0.180819,1.83e+05,99658.3,11931.5,100000000.0,2.43674e-06,0.733809,0.936776,0.94,0.314281,0.0239427,3.38773e-05,0.000386117,1.01314,0.0,1683.0,1235.0,
194,34371.3,3.06e+12,1.0,0.0,1074.38,1089.1,0.0429385,0.180819,1.83e+05,99658.3,11931.5,100000000.0,2.43674e-06,0.733809,0.936776,0.94,0.314281,0.0239427,3.38773e-05,0.000386117,1.01314,0.0,1683.0,1235.0,
195,34529.7,3.06e+12,1.0,0.0,1074.38,1089.1,0.0429385,0.180819,1.83e+05,99658.3,11931.5,100000000.0,2.43674e-06,0.733809,0.936776,0.94,0.314281,0.0239427,3.38773e-05,0.000386117,1.01314,0.0,1683.0,1235.0,
196,34669.3,3.06e+12,1.0,0.0,1074.38,1089.1,0.0429385,0.180819,1.83e+05,99658.3,11931.5,100000000.0,2.43674e-06,0.733809,0.936776,0.94,0.314281,0.0239427,3.38773e-05,0.000386117,1.01314,0.0,1683.0,1235.0,
197,34750.2,3.06e+12,1.0,0.0,1074.38,1089.1,0.0429385,0.180819,1.83e+05,99658.3,11931.5,100000000.0,2.43674e-06,0.733809,0.936776,0.94,0.314281,0.0239427,3.38773e-05,0.000386117,1.01314,0.0,1683.0,1235.0,
198,34829.1,3.06e+12,1.0,0.0,1074.41,1090.62,0.0429588,0.178622,1.83e+05,99656.6,11935.7,100000000.0,2.43671e-06,0.733809,0.936807,0.94,0.314288,0.0239383,3.38962e-05,0.000386103,1.01308,0.0,1683.0,1235.0,
199,34909.3,3.06e+12,1.0,0.0,1074.41,1090.62,0.0429588,0.178622,1.83e+05,99656.6,11935.7,100000000.0,2.43671e-06,0.733809,0.936807,0.94,0.314288,0.0239383,3.38962e-05,0.000386103,1.01308,0.0,1683.0,1235.0,