File: results/E_Glass/1Mass_DSC_FT/E_Glass_linear_dsc_M_FT_0_cone_Mass.csv
# Time [s], Mass [Kg]
0.000000000000000000e+00,1
2,1
4,1
6,1
8,1
10,1
12,1
14,1
16,1
18,1
20,1
22,1
24,1
26,1
28,1
30,1
32,1
34,1
36,1
38,1
40,1
42,1
44,1
46,1
48,1
50,1
52,1
54,1
56,1
58,1
60,1
62,1
64,1
66,1
68,1
70,1
72,1
74,1
76,1
78,1
80,1
82,1
84,1
86,1
88,1
90,0.999999
92,0.999999
94,0.999999
96,0.999999
98,0.999999
100,0.999999
102,0.999998
104,0.999998
106,0.999998
108,0.999997
110,0.999997
112,0.999996
114,0.999996
116,0.999995
118,0.999994
120,0.999994
122,0.999993
124,0.999992
126,0.999991
128,0.999989
130,0.999988
132,0.999986
134,0.999984
136,0.999982
138,0.99998
140,0.999978
142,0.999975
144,0.999972
146,0.999969
148,0.999965
150,0.999961
152,0.999957
154,0.999953
156,0.999947
158,0.999942
160,0.999935
162,0.999929
164,0.999921
166,0.999913
168,0.999904
170,0.999895
172,0.999885
174,0.999873
176,0.999861
178,0.999848
180,0.999834
182,0.999818
184,0.999802
186,0.999784
188,0.999764
190,0.999744
192,0.999721
194,0.999697
196,0.999671
198,0.999643
200,0.999613
202,0.999581
204,0.999547
206,0.99951
208,0.99947
210,0.999428
212,0.999383
214,0.999336
216,0.999284
218,0.99923
220,0.999172
222,0.99911
224,0.999045
226,0.998975
228,0.998901
230,0.998822
232,0.998739
234,0.998651
236,0.998558
238,0.998459
240,0.998355
242,0.998245
244,0.998129
246,0.998006
248,0.997877
250,0.997742
252,0.997599
254,0.997448
256,0.99729
258,0.997125
260,0.996951
262,0.996768
264,0.996577
266,0.996377
268,0.996168
270,0.99595
272,0.995721
274,0.995483
276,0.995234
278,0.994975
280,0.994705
282,0.994424
284,0.994131
286,0.993827
288,0.993511
290,0.993184
292,0.992844
294,0.992491
296,0.992126
298,0.991748
300,0.991357
302,0.990952
304,0.990534
306,0.990103
308,0.989657
310,0.989198
312,0.988724
314,0.988236
316,0.987734
318,0.987217
320,0.986686
322,0.986139
324,0.985578
326,0.985002
328,0.984411
330,0.983804
332,0.983183
334,0.982546
336,0.981894
338,0.981227
340,0.980544
342,0.979845
344,0.979132
346,0.978403
348,0.977658
350,0.976898
352,0.976123
354,0.975332
356,0.974526
358,0.973705
360,0.972868
362,0.972017
364,0.97115
366,0.970267
368,0.96937
370,0.968458
372,0.967531
374,0.96659
376,0.965634
378,0.964663
380,0.963677
382,0.962678
384,0.961664
386,0.960636
388,0.959595
390,0.958539
392,0.95747
394,0.956387
396,0.955292
398,0.954183
400,0.953061
402,0.951927
404,0.950779
406,0.94962
408,0.948449
410,0.947266
412,0.946071
414,0.944864
416,0.943647
418,0.942418
420,0.941179
422,0.93993
424,0.93867
426,0.9374
428,0.936121
430,0.934833
432,0.933535
434,0.932229
436,0.930914
438,0.929591
440,0.92826
442,0.926922
444,0.925576
446,0.924224
448,0.922864
450,0.921499
452,0.920127
454,0.91875
456,0.917367
458,0.915979
460,0.914586
462,0.913189
464,0.911788
466,0.910382
468,0.908974
470,0.907562
472,0.906147
474,0.904729
476,0.903309
478,0.901887
480,0.900463
482,0.899038
484,0.897612
486,0.896184
488,0.894756
490,0.893328
492,0.891899
494,0.89047
496,0.889042
498,0.887615
500,0.886188
502,0.884762
504,0.883338
506,0.881915
508,0.880494
510,0.879075
512,0.877658
514,0.876243
516,0.874831
518,0.873422
520,0.872016
522,0.870613
524,0.869213
526,0.867816
528,0.866423
530,0.865034
532,0.863649
534,0.862267
536,0.86089
538,0.859517
540,0.858149
542,0.856785
544,0.855426
546,0.854072
548,0.852723
550,0.851378
552,0.850039
554,0.848705
556,0.847376
558,0.846053
560,0.844735
562,0.843423
564,0.842116
566,0.840815
568,0.83952
570,0.838231
572,0.836948
574,0.835671
576,0.834399
578,0.833134
580,0.831875
582,0.830623
584,0.829376
586,0.828136
588,0.826903
590,0.825675
592,0.824455
594,0.82324
596,0.822033
598,0.820832
600,0.819637
602,0.81845
604,0.817269
606,0.816094
608,0.814927
610,0.813766
612,0.812613
614,0.811466
616,0.810326
618,0.809193
620,0.808067
622,0.806948
624,0.805836
626,0.804731
628,0.803634
630,0.802543
632,0.801459
634,0.800383
636,0.799314
638,0.798253
640,0.797198
642,0.796151
644,0.795111
646,0.794079
648,0.793054
650,0.792036
652,0.791026
654,0.790023
656,0.789028
658,0.788041
660,0.787061
662,0.786088
664,0.785124
666,0.784167
668,0.783217
670,0.782276
672,0.781342
674,0.780416
676,0.779498
678,0.778588
680,0.777686
682,0.776792
684,0.775905
686,0.775027
688,0.774157
690,0.773295
692,0.772441
694,0.771596
696,0.770759
698,0.76993
700,0.769109
702,0.768297
704,0.767493
706,0.766698
708,0.765912
710,0.765134
712,0.764364
714,0.763604
716,0.762852
718,0.762109
720,0.761375
722,0.760649
724,0.759933
726,0.759226
728,0.758528
730,0.757839
732,0.757159
734,0.756489
736,0.755827
738,0.755176
740,0.754533
742,0.753901
744,0.753277
746,0.752664
748,0.75206
750,0.751466
752,0.750881
754,0.750307
756,0.749742
758,0.749188
760,0.748643
762,0.748109
764,0.747584
766,0.74707
768,0.746567
770,0.746073
772,0.74559
774,0.745117
776,0.744655
778,0.744203
780,0.743762
782,0.743331
784,0.742911
786,0.742502
788,0.742103
790,0.741715
792,0.741337
794,0.740971
796,0.740615
798,0.740269
800,0.739934
802,0.73961
804,0.739297
806,0.738994
808,0.738701
810,0.73842
812,0.738148
814,0.737887
816,0.737636
818,0.737395
820,0.737165
822,0.736944
824,0.736733
826,0.736532
828,0.736341
830,0.736159
832,0.735986
834,0.735822
836,0.735667
838,0.73552
840,0.735382
842,0.735253
844,0.735131
846,0.735017
848,0.73491
850,0.73481
852,0.734718
854,0.734632
856,0.734552
858,0.734479
860,0.734411
862,0.734349
864,0.734292
866,0.734239
868,0.734192
870,0.734149
872,0.734109
874,0.734074
876,0.734042
878,0.734013
880,0.733988
882,0.733965
884,0.733944
886,0.733926
888,0.73391
890,0.733896
892,0.733884
894,0.733873
896,0.733864
898,0.733855
900,0.733848
902,0.733842
904,0.733837
906,0.733832
908,0.733829
910,0.733825
912,0.733822
914,0.73382
916,0.733818
918,0.733816
920,0.733815
922,0.733814
924,0.733813
926,0.733812
928,0.733811
930,0.733811
932,0.73381
934,0.73381
936,0.73381
938,0.73381
940,0.733809
942,0.733809
944,0.733809
946,0.733809
948,0.733809
950,0.733809
952,0.733809
954,0.733809
956,0.733809
958,0.733809
960,0.733809
962,0.733809
964,0.733809
966,0.733809
968,0.733809
970,0.733809
972,0.733809
974,0.733809
976,0.733809
978,0.733809
980,0.733809
982,0.733809
984,0.733809
986,0.733809
988,0.733809
990,0.733809
992,0.733809
994,0.733809
996,0.733809
998,0.733809
1000,0.733809
1000,0.733809
1000,0.733809
1010,0.733809
1010,0.733809
1010,0.733809
1010,0.733809
1010,0.733809
1020,0.733809
1020,0.733809
1020,0.733809
1020,0.733809
1020,0.733809
1030,0.733809
1030,0.733809
1030,0.733809
1030,0.733809
1030,0.733809
1040,0.733809
1040,0.733809
1040,0.733809
1040,0.733809
1040,0.733809
1050,0.733809
1050,0.733809
1050,0.733809
1050,0.733809
1050,0.733809
1060,0.733809
1060,0.733809
1060,0.733809
1060,0.733809
1060,0.733809
1070,0.733809
1070,0.733809
1070,0.733809
1070,0.733809
1070,0.733809
1080,0.733809
1080,0.733809
1080,0.733809
1080,0.733809
1080,0.733809
1090,0.733809
1090,0.733809
1090,0.733809
1090,0.733809
1090,0.733809
1100,0.733809
1100,0.733809
1100,0.733809
1100,0.733809
1100,0.733809
1110,0.733809
1110,0.733809
1110,0.733809
1110,0.733809
1110,0.733809
1120,0.733809
1120,0.733809
1120,0.733809
1120,0.733809
1120,0.733809
1130,0.733809
1130,0.733809
1130,0.733809
1130,0.733809
1130,0.733809
1140,0.733809
1140,0.733809
1140,0.733809
1140,0.733809
1140,0.733809
1150,0.733809
1150,0.733809
1150,0.733809
1150,0.733809
1150,0.733809
1160,0.733809
1160,0.733809
1160,0.733809
1160,0.733809
1160,0.733809
1170,0.733809
1170,0.733809
1170,0.733809
1170,0.733809
1170,0.733809
1180,0.733809
1180,0.733809
1180,0.733809
1180,0.733809
1180,0.733809
1190,0.733809
1190,0.733809
1190,0.733809
1190,0.733809
1190,0.733809
1200,0.733809
1200,0.733809
1200,0.733809
1200,0.733809
1200,0.733809
1210,0.733809
1210,0.733809
1210,0.733809
1210,0.733809
1210,0.733809
1220,0.733809
1220,0.733809
1220,0.733809
1220,0.733809
1220,0.733809
1230,0.733809
1230,0.733809
1230,0.733809
1230,0.733809
1230,0.733809
1240,0.733809
1240,0.733809
1240,0.733809
1240,0.733809
1240,0.733809
1250,0.733809
1250,0.733809
1250,0.733809
1250,0.733809
1250,0.733809
1260,0.733809
1260,0.733809
1260,0.733809
1260,0.733809
1260,0.733809
1270,0.733809
1270,0.733809
1270,0.733809
1270,0.733809
1270,0.733809
1280,0.733809
1280,0.733809
1280,0.733809
1280,0.733809
1280,0.733809
1290,0.733809
1290,0.733809
1290,0.733809
1290,0.733809
1290,0.733809
1300,0.733809
1300,0.733809
1300,0.733809
1300,0.733809
1300,0.733809
1310,0.733809
1310,0.733809
1310,0.733809
1310,0.733809
1310,0.733809
1320,0.733809
1320,0.733809
1320,0.733809
1320,0.733809
1320,0.733809
1330,0.733809
1330,0.733809
1330,0.733809
1330,0.733809
1330,0.733809
1340,0.733809
1340,0.733809
1340,0.733809
1340,0.733809
1340,0.733809
1350,0.733809
1350,0.733809
1350,0.733809
1350,0.733809
1350,0.733809
1360,0.733809
1360,0.733809
1360,0.733809
1360,0.733809
1360,0.733809
1370,0.733809
1370,0.733809
1370,0.733809
1370,0.733809
1370,0.733809
1380,0.733809
1380,0.733809
1380,0.733809
1380,0.733809
1380,0.733809
1390,0.733809
1390,0.733809
1390,0.733809
1390,0.733809
1390,0.733809
1400,0.733809
1400,0.733809
1400,0.733809
1400,0.733809
1400,0.733809
1410,0.733809
1410,0.733809
1410,0.733809
1410,0.733809
1410,0.733809
1420,0.733809
1420,0.733809
1420,0.733809
1420,0.733809
1420,0.733809
1430,0.733809
1430,0.733809
1430,0.733809
1430,0.733809
1430,0.733809
1440,0.733809
1440,0.733809
1440,0.733809
1440,0.733809
1440,0.733809
1450,0.733809
1450,0.733809
1450,0.733809
1450,0.733809
1450,0.733809
1460,0.733809
1460,0.733809
1460,0.733809
1460,0.733809
1460,0.733809
1470,0.733809
1470,0.733809
1470,0.733809
1470,0.733809
1470,0.733809
1480,0.733809
1480,0.733809
1480,0.733809
1480,0.733809
1480,0.733809
1490,0.733809
1490,0.733809
1490,0.733809
1490,0.733809
1490,0.733809
1500,0.733809
1500,0.733809
1500,0.733809
1500,0.733809
1500,0.733809
1510,0.733809
1510,0.733809
1510,0.733809
1510,0.733809
1510,0.733809
1520,0.733809
1520,0.733809
1520,0.733809
1520,0.733809
1520,0.733809
1530,0.733809
1530,0.733809
1530,0.733809
1530,0.733809
1530,0.733809
1540,0.733809
1540,0.733809
1540,0.733809
1540,0.733809
1540,0.733809
1550,0.733809
1550,0.733809
1550,0.733809
1550,0.733809
1550,0.733809
1560,0.733809
1560,0.733809
1560,0.733809
1560,0.733809
1560,0.733809
1570,0.733809
1570,0.733809
1570,0.733809
1570,0.733809
1570,0.733809
1580,0.733809
1580,0.733809
1580,0.733809
1580,0.733809
1580,0.733809
1590,0.733809
1590,0.733809
1590,0.733809
1590,0.733809
1590,0.733809
1600,0.733809
1600,0.733809
1600,0.733809
1600,0.733809
1600,0.733809
1610,0.733809
1610,0.733809
1610,0.733809
1610,0.733809
1610,0.733809
1620,0.733809
1620,0.733809
1620,0.733809
1620,0.733809
1620,0.733809
1630,0.733809
1630,0.733809
1630,0.733809
1630,0.733809
1630,0.733809
1640,0.733809
1640,0.733809
1640,0.733809
1640,0.733809
1640,0.733809
1650,0.733809
1650,0.733809
1650,0.733809
1650,0.733809
1650,0.733809
1660,0.733809
1660,0.733809
1660,0.733809
1660,0.733809
1660,0.733809
1670,0.733809
1670,0.733809
1670,0.733809
1670,0.733809
1670,0.733809
1680,0.733809
1680,0.733809
1680,0.733809
1680,0.733809
1680,0.733809
1690,0.733809
1690,0.733809
1690,0.733809
1690,0.733809
1690,0.733809
1700,0.733809
1700,0.733809
1700,0.733809
1700,0.733809
1700,0.733809
1710,0.733809
1710,0.733809
1710,0.733809
1710,0.733809
1710,0.733809
1720,0.733809
1720,0.733809
1720,0.733809
1720,0.733809
1720,0.733809
1730,0.733809
1730,0.733809
1730,0.733809
1730,0.733809
1730,0.733809
1740,0.733809
1740,0.733809
1740,0.733809
1740,0.733809
1740,0.733809
1750,0.733809
1750,0.733809
1750,0.733809
1750,0.733809
1750,0.733809
1760,0.733809
1760,0.733809
1760,0.733809
1760,0.733809
1760,0.733809
1770,0.733809
1770,0.733809
1770,0.733809
1770,0.733809
1770,0.733809
1780,0.733809
1780,0.733809
1780,0.733809
1780,0.733809
1780,0.733809
1790,0.733809
1790,0.733809
1790,0.733809
1790,0.733809
1790,0.733809
1800,0.733809
1800,0.733809
1800,0.733809