File: results/E_Glass/1Mass_DSC_FT/E_Glass_linear_dsc_M_FT_0_cone_BT.csv
# Time [s], Temperature [C]
0.000000000000000000e+00,25
2,25
4,25
6,25
8,25.0002
10,25.0017
12,25.0077
14,25.0252
16,25.065
18,25.1401
20,25.2644
22,25.4508
24,25.7104
26,26.0519
28,26.482
30,27.0047
32,27.6226
34,28.3364
36,29.1455
38,30.0482
40,31.0423
42,32.1245
44,33.2916
46,34.5397
48,35.865
50,37.2635
52,38.731
54,40.2637
56,41.8576
58,43.5089
60,45.2138
62,46.9688
64,48.7705
66,50.6154
68,52.5006
70,54.4231
72,56.3799
74,58.3684
76,60.3861
78,62.4304
80,64.4993
82,66.5904
84,68.7019
86,70.8316
88,72.978
90,75.1391
92,77.3135
94,79.4997
96,81.6961
98,83.9016
100,86.1147
102,88.3343
104,90.5594
106,92.7888
108,95.0215
110,97.2567
112,99.4934
114,101.731
116,103.968
118,106.205
120,108.44
122,110.673
124,112.904
126,115.131
128,117.355
130,119.574
132,121.789
134,123.999
136,126.203
138,128.401
140,130.594
142,132.779
144,134.958
146,137.13
148,139.295
150,141.453
152,143.602
154,145.744
156,147.877
158,150.003
160,152.12
162,154.228
164,156.327
166,158.418
168,160.5
170,162.573
172,164.636
174,166.691
176,168.736
178,170.771
180,172.798
182,174.814
184,176.821
186,178.818
188,180.806
190,182.784
192,184.751
194,186.709
196,188.658
198,190.596
200,192.524
202,194.442
204,196.35
206,198.248
208,200.136
210,202.014
212,203.882
214,205.739
216,207.586
218,209.424
220,211.25
222,213.067
224,214.873
226,216.67
228,218.455
230,220.231
232,221.996
234,223.751
236,225.495
238,227.229
240,228.953
242,230.666
244,232.369
246,234.062
248,235.744
250,237.415
252,239.076
254,240.727
256,242.367
258,243.996
260,245.615
262,247.223
264,248.821
266,250.408
268,251.984
270,253.55
272,255.105
274,256.649
276,258.183
278,259.706
280,261.219
282,262.72
284,264.211
286,265.691
288,267.161
290,268.619
292,270.067
294,271.504
296,272.93
298,274.345
300,275.749
302,277.142
304,278.525
306,279.896
308,281.255
310,282.604
312,283.941
314,285.267
316,286.582
318,287.885
320,289.177
322,290.457
324,291.725
326,292.982
328,294.227
330,295.46
332,296.681
334,297.89
336,299.087
338,300.272
340,301.445
342,302.606
344,303.754
346,304.89
348,306.013
350,307.124
352,308.222
354,309.308
356,310.38
358,311.44
360,312.488
362,313.522
364,314.544
366,315.552
368,316.548
370,317.53
372,318.5
374,319.456
376,320.399
378,321.329
380,322.246
382,323.149
384,324.04
386,324.917
388,325.781
390,326.631
392,327.469
394,328.293
396,329.104
398,329.902
400,330.687
402,331.459
404,332.218
406,332.964
408,333.697
410,334.417
412,335.125
414,335.819
416,336.502
418,337.172
420,337.829
422,338.474
424,339.108
426,339.729
428,340.338
430,340.936
432,341.522
434,342.096
436,342.66
438,343.212
440,343.753
442,344.284
444,344.804
446,345.313
448,345.813
450,346.302
452,346.782
454,347.252
456,347.712
458,348.164
460,348.606
462,349.04
464,349.465
466,349.882
468,350.29
470,350.691
472,351.084
474,351.469
476,351.848
478,352.219
480,352.583
482,352.94
484,353.292
486,353.636
488,353.975
490,354.308
492,354.636
494,354.958
496,355.274
498,355.586
500,355.893
502,356.195
504,356.493
506,356.786
508,357.076
510,357.361
512,357.643
514,357.921
516,358.196
518,358.467
520,358.735
522,359.001
524,359.263
526,359.523
528,359.78
530,360.035
532,360.288
534,360.538
536,360.787
538,361.034
540,361.279
542,361.522
544,361.764
546,362.004
548,362.243
550,362.481
552,362.718
554,362.954
556,363.189
558,363.423
560,363.657
562,363.889
564,364.122
566,364.354
568,364.585
570,364.817
572,365.048
574,365.279
576,365.509
578,365.74
580,365.971
582,366.202
584,366.434
586,366.665
588,366.897
590,367.129
592,367.362
594,367.595
596,367.829
598,368.063
600,368.298
602,368.534
604,368.771
606,369.008
608,369.247
610,369.486
612,369.726
614,369.967
616,370.209
618,370.453
620,370.697
622,370.943
624,371.19
626,371.438
628,371.687
630,371.938
632,372.19
634,372.444
636,372.699
638,372.956
640,373.214
642,373.474
644,373.736
646,373.999
648,374.264
650,374.53
652,374.799
654,375.069
656,375.341
658,375.616
660,375.892
662,376.17
664,376.45
666,376.732
668,377.016
670,377.303
672,377.591
674,377.882
676,378.175
678,378.471
680,378.769
682,379.069
684,379.372
686,379.677
688,379.985
690,380.295
692,380.608
694,380.924
696,381.242
698,381.564
700,381.887
702,382.214
704,382.544
706,382.877
708,383.212
710,383.551
712,383.893
714,384.238
716,384.586
718,384.937
720,385.292
722,385.65
724,386.011
726,386.376
728,386.744
730,387.116
732,387.492
734,387.871
736,388.253
738,388.64
740,389.03
742,389.424
744,389.822
746,390.224
748,390.63
750,391.04
752,391.454
754,391.872
756,392.294
758,392.72
760,393.151
762,393.586
764,394.025
766,394.469
768,394.916
770,395.369
772,395.825
774,396.287
776,396.752
778,397.222
780,397.697
782,398.176
784,398.659
786,399.147
788,399.64
790,400.137
792,400.638
794,401.144
796,401.654
798,402.168
800,402.687
802,403.21
804,403.737
806,404.268
808,404.803
810,405.342
812,405.885
814,406.431
816,406.981
818,407.534
820,408.09
822,408.649
824,409.211
826,409.776
828,410.344
830,410.913
832,411.485
834,412.058
836,412.633
838,413.209
840,413.786
842,414.364
844,414.942
846,415.52
848,416.098
850,416.676
852,417.253
854,417.83
856,418.404
858,418.978
860,419.549
862,420.118
864,420.685
866,421.249
868,421.81
870,422.367
872,422.922
874,423.472
876,424.019
878,424.562
880,425.1
882,425.634
884,426.164
886,426.689
888,427.209
890,427.724
892,428.234
894,428.74
896,429.24
898,429.735
900,430.226
902,430.711
904,431.191
906,431.666
908,432.136
910,432.602
912,433.062
914,433.518
916,433.968
918,434.414
920,434.856
922,435.293
924,435.725
926,436.153
928,436.576
930,436.995
932,437.41
934,437.82
936,438.227
938,438.629
940,439.028
942,439.422
944,439.813
946,440.199
948,440.582
950,440.962
952,441.337
954,441.709
956,442.078
958,442.442
960,442.804
962,443.162
964,443.516
966,443.867
968,444.215
970,444.56
972,444.901
974,445.239
976,445.574
978,445.906
980,446.235
982,446.56
984,446.883
986,447.203
988,447.519
990,447.833
992,448.144
994,448.452
996,448.757
998,449.059
1000,449.358
1000,449.358
1000,449.358
1010,450.814
1010,450.814
1010,450.814
1010,450.814
1010,450.814
1020,452.203
1020,452.203
1020,452.203
1020,452.203
1020,452.203
1030,453.529
1030,453.529
1030,453.529
1030,453.529
1030,453.529
1040,454.794
1040,454.794
1040,454.794
1040,454.794
1040,454.794
1050,456.002
1050,456.002
1050,456.002
1050,456.002
1050,456.002
1060,457.154
1060,457.154
1060,457.154
1060,457.154
1060,457.154
1070,458.254
1070,458.254
1070,458.254
1070,458.254
1070,458.254
1080,459.303
1080,459.303
1080,459.303
1080,459.303
1080,459.303
1090,460.304
1090,460.304
1090,460.304
1090,460.304
1090,460.304
1100,461.259
1100,461.259
1100,461.259
1100,461.259
1100,461.259
1110,462.17
1110,462.17
1110,462.17
1110,462.17
1110,462.17
1120,463.039
1120,463.039
1120,463.039
1120,463.039
1120,463.039
1130,463.868
1130,463.868
1130,463.868
1130,463.868
1130,463.868
1140,464.659
1140,464.659
1140,464.659
1140,464.659
1140,464.659
1150,465.414
1150,465.414
1150,465.414
1150,465.414
1150,465.414
1160,466.133
1160,466.133
1160,466.133
1160,466.133
1160,466.133
1170,466.819
1170,466.819
1170,466.819
1170,466.819
1170,466.819
1180,467.473
1180,467.473
1180,467.473
1180,467.473
1180,467.473
1190,468.097
1190,468.097
1190,468.097
1190,468.097
1190,468.097
1200,468.692
1200,468.692
1200,468.692
1200,468.692
1200,468.692
1210,469.26
1210,469.26
1210,469.26
1210,469.26
1210,469.26
1220,469.801
1220,469.801
1220,469.801
1220,469.801
1220,469.801
1230,470.316
1230,470.316
1230,470.316
1230,470.316
1230,470.316
1240,470.808
1240,470.808
1240,470.808
1240,470.808
1240,470.808
1250,471.277
1250,471.277
1250,471.277
1250,471.277
1250,471.277
1260,471.724
1260,471.724
1260,471.724
1260,471.724
1260,471.724
1270,472.15
1270,472.15
1270,472.15
1270,472.15
1270,472.15
1280,472.557
1280,472.557
1280,472.557
1280,472.557
1280,472.557
1290,472.944
1290,472.944
1290,472.944
1290,472.944
1290,472.944
1300,473.313
1300,473.313
1300,473.313
1300,473.313
1300,473.313
1310,473.665
1310,473.665
1310,473.665
1310,473.665
1310,473.665
1320,474.001
1320,474.001
1320,474.001
1320,474.001
1320,474.001
1330,474.321
1330,474.321
1330,474.321
1330,474.321
1330,474.321
1340,474.625
1340,474.625
1340,474.625
1340,474.625
1340,474.625
1350,474.916
1350,474.916
1350,474.916
1350,474.916
1350,474.916
1360,475.193
1360,475.193
1360,475.193
1360,475.193
1360,475.193
1370,475.457
1370,475.457
1370,475.457
1370,475.457
1370,475.457
1380,475.709
1380,475.709
1380,475.709
1380,475.709
1380,475.709
1390,475.948
1390,475.948
1390,475.948
1390,475.948
1390,475.948
1400,476.177
1400,476.177
1400,476.177
1400,476.177
1400,476.177
1410,476.395
1410,476.395
1410,476.395
1410,476.395
1410,476.395
1420,476.603
1420,476.603
1420,476.603
1420,476.603
1420,476.603
1430,476.8
1430,476.8
1430,476.8
1430,476.8
1430,476.8
1440,476.989
1440,476.989
1440,476.989
1440,476.989
1440,476.989
1450,477.169
1450,477.169
1450,477.169
1450,477.169
1450,477.169
1460,477.34
1460,477.34
1460,477.34
1460,477.34
1460,477.34
1470,477.503
1470,477.503
1470,477.503
1470,477.503
1470,477.503
1480,477.659
1480,477.659
1480,477.659
1480,477.659
1480,477.659
1490,477.807
1490,477.807
1490,477.807
1490,477.807
1490,477.807
1500,477.948
1500,477.948
1500,477.948
1500,477.948
1500,477.948
1510,478.083
1510,478.083
1510,478.083
1510,478.083
1510,478.083
1520,478.211
1520,478.211
1520,478.211
1520,478.211
1520,478.211
1530,478.334
1530,478.334
1530,478.334
1530,478.334
1530,478.334
1540,478.45
1540,478.45
1540,478.45
1540,478.45
1540,478.45
1550,478.561
1550,478.561
1550,478.561
1550,478.561
1550,478.561
1560,478.667
1560,478.667
1560,478.667
1560,478.667
1560,478.667
1570,478.768
1570,478.768
1570,478.768
1570,478.768
1570,478.768
1580,478.864
1580,478.864
1580,478.864
1580,478.864
1580,478.864
1590,478.956
1590,478.956
1590,478.956
1590,478.956
1590,478.956
1600,479.043
1600,479.043
1600,479.043
1600,479.043
1600,479.043
1610,479.126
1610,479.126
1610,479.126
1610,479.126
1610,479.126
1620,479.205
1620,479.205
1620,479.205
1620,479.205
1620,479.205
1630,479.281
1630,479.281
1630,479.281
1630,479.281
1630,479.281
1640,479.353
1640,479.353
1640,479.353
1640,479.353
1640,479.353
1650,479.421
1650,479.421
1650,479.421
1650,479.421
1650,479.421
1660,479.487
1660,479.487
1660,479.487
1660,479.487
1660,479.487
1670,479.549
1670,479.549
1670,479.549
1670,479.549
1670,479.549
1680,479.608
1680,479.608
1680,479.608
1680,479.608
1680,479.608
1690,479.665
1690,479.665
1690,479.665
1690,479.665
1690,479.665
1700,479.718
1700,479.718
1700,479.718
1700,479.718
1700,479.718
1710,479.77
1710,479.77
1710,479.77
1710,479.77
1710,479.77
1720,479.819
1720,479.819
1720,479.819
1720,479.819
1720,479.819
1730,479.865
1730,479.865
1730,479.865
1730,479.865
1730,479.865
1740,479.91
1740,479.91
1740,479.91
1740,479.91
1740,479.91
1750,479.952
1750,479.952
1750,479.952
1750,479.952
1750,479.952
1760,479.992
1760,479.992
1760,479.992
1760,479.992
1760,479.992
1770,480.031
1770,480.031
1770,480.031
1770,480.031
1770,480.031
1780,480.067
1780,480.067
1780,480.067
1780,480.067
1780,480.067
1790,480.102
1790,480.102
1790,480.102
1790,480.102
1790,480.102
1800,480.135
1800,480.135
1800,480.135