File: results/E_Glass/1Mass_DSC_FT/E_Glass_linear_dsc_M_FT_0_cone_Temp0.csv
# Time [s], Temperature [C]
0.000000000000000000e+00,25
2,45.5695
4,67.2229
6,82.4717
8,94.6961
10,105.08
12,114.192
14,122.359
16,129.786
18,136.614
20,142.945
22,148.853
24,154.398
26,159.624
28,164.569
30,169.264
32,173.734
34,177.999
36,182.08
38,185.99
40,189.745
42,193.355
44,196.833
46,200.187
48,203.427
50,206.559
52,209.59
54,212.53
56,215.381
58,218.149
60,220.841
62,223.461
64,226.012
66,228.5
68,230.928
70,233.299
72,235.617
74,237.886
76,240.108
78,242.287
80,244.423
82,246.521
84,248.583
86,250.61
88,252.604
90,254.567
92,256.5
94,258.404
96,260.28
98,262.13
100,263.953
102,265.75
104,267.522
106,269.269
108,270.991
110,272.688
112,274.361
114,276.01
116,277.637
118,279.241
120,280.822
122,282.383
124,283.922
126,285.442
128,286.942
130,288.424
132,289.888
134,291.334
136,292.764
138,294.179
140,295.578
142,296.961
144,298.331
146,299.687
148,301.029
150,302.359
152,303.675
154,304.979
156,306.271
158,307.552
160,308.821
162,310.078
164,311.325
166,312.561
168,313.786
170,315.001
172,316.205
174,317.399
176,318.583
178,319.758
180,320.922
182,322.077
184,323.221
186,324.357
188,325.484
190,326.6
192,327.708
194,328.806
196,329.894
198,330.974
200,332.045
202,333.106
204,334.159
206,335.202
208,336.236
210,337.261
212,338.277
214,339.284
216,340.283
218,341.272
220,342.252
222,343.224
224,344.186
226,345.139
228,346.083
230,347.019
232,347.945
234,348.862
236,349.771
238,350.669
240,351.56
242,352.441
244,353.313
246,354.176
248,355.03
250,355.875
252,356.711
254,357.539
256,358.356
258,359.165
260,359.965
262,360.756
264,361.538
266,362.311
268,363.075
270,363.831
272,364.578
274,365.315
276,366.045
278,366.765
280,367.476
282,368.18
284,368.875
286,369.561
288,370.239
290,370.91
292,371.571
294,372.225
296,372.871
298,373.508
300,374.139
302,374.762
304,375.377
306,375.985
308,376.587
310,377.179
312,377.767
314,378.346
316,378.919
318,379.486
320,380.047
322,380.6
324,381.148
326,381.691
328,382.226
330,382.758
332,383.283
334,383.802
336,384.317
338,384.827
340,385.331
342,385.832
344,386.327
346,386.817
348,387.304
350,387.787
352,388.265
354,388.739
356,389.209
358,389.676
360,390.14
362,390.6
364,391.055
366,391.509
368,391.959
370,392.406
372,392.851
374,393.292
376,393.729
378,394.165
380,394.598
382,395.027
384,395.455
386,395.88
388,396.303
390,396.724
392,397.143
394,397.558
396,397.972
398,398.384
400,398.791
402,399.198
404,399.603
406,400.005
408,400.405
410,400.804
412,401.199
414,401.594
416,401.986
418,402.375
420,402.762
422,403.148
424,403.53
426,403.912
428,404.291
430,404.667
432,405.042
434,405.414
436,405.783
438,406.15
440,406.515
442,406.877
444,407.237
446,407.594
448,407.948
450,408.301
452,408.652
454,409
456,409.345
458,409.688
460,410.028
462,410.366
464,410.701
466,411.033
468,411.363
470,411.691
472,412.015
474,412.339
476,412.658
478,412.974
480,413.289
482,413.602
484,413.911
486,414.216
488,414.522
490,414.824
492,415.123
494,415.418
496,415.713
498,416.004
500,416.295
502,416.58
504,416.865
506,417.147
508,417.426
510,417.704
512,417.979
514,418.252
516,418.521
518,418.79
520,419.056
522,419.318
524,419.58
526,419.841
528,420.097
530,420.352
532,420.605
534,420.857
536,421.106
538,421.352
540,421.599
542,421.842
544,422.082
546,422.323
548,422.56
550,422.796
552,423.031
554,423.263
556,423.494
558,423.723
560,423.95
562,424.176
564,424.401
566,424.623
568,424.843
570,425.065
572,425.282
574,425.5
576,425.714
578,425.928
580,426.142
582,426.352
584,426.563
586,426.771
588,426.978
590,427.185
592,427.39
594,427.594
596,427.796
598,427.997
600,428.198
602,428.396
604,428.595
606,428.791
608,428.988
610,429.182
612,429.376
614,429.569
616,429.762
618,429.952
620,430.142
622,430.331
624,430.52
626,430.707
628,430.894
630,431.08
632,431.263
634,431.449
636,431.631
638,431.815
640,431.996
642,432.178
644,432.358
646,432.539
648,432.717
650,432.896
652,433.074
654,433.25
656,433.427
658,433.603
660,433.779
662,433.955
664,434.129
666,434.303
668,434.476
670,434.65
672,434.821
674,434.994
676,435.165
678,435.337
680,435.508
682,435.679
684,435.848
686,436.018
688,436.187
690,436.356
692,436.525
694,436.694
696,436.862
698,437.03
700,437.198
702,437.365
704,437.533
706,437.7
708,437.867
710,438.033
712,438.2
714,438.365
716,438.532
718,438.698
720,438.865
722,439.03
724,439.196
726,439.362
728,439.527
730,439.693
732,439.859
734,440.026
736,440.191
738,440.357
740,440.522
742,440.689
744,440.855
746,441.021
748,441.186
750,441.353
752,441.519
754,441.686
756,441.853
758,442.02
760,442.187
762,442.354
764,442.522
766,442.69
768,442.859
770,443.026
772,443.195
774,443.364
776,443.533
778,443.703
780,443.873
782,444.043
784,444.214
786,444.384
788,444.556
790,444.727
792,444.9
794,445.072
796,445.246
798,445.419
800,445.594
802,445.768
804,445.942
806,446.118
808,446.294
810,446.47
812,446.647
814,446.824
816,447.002
818,447.18
820,447.359
822,447.538
824,447.719
826,447.898
828,448.08
830,448.261
832,448.443
834,448.625
836,448.809
838,448.992
840,449.175
842,449.36
844,449.544
846,449.73
848,449.915
850,450.101
852,450.287
854,450.474
856,450.66
858,450.848
860,451.035
862,451.224
864,451.411
866,451.6
868,451.787
870,451.975
872,452.164
874,452.352
876,452.54
878,452.728
880,452.917
882,453.105
884,453.292
886,453.48
888,453.667
890,453.853
892,454.04
894,454.225
896,454.411
898,454.596
900,454.781
902,454.964
904,455.146
906,455.329
908,455.51
910,455.691
912,455.871
914,456.05
916,456.228
918,456.405
920,456.581
922,456.757
924,456.931
926,457.103
928,457.276
930,457.446
932,457.616
934,457.784
936,457.952
938,458.118
940,458.283
942,458.447
944,458.609
946,458.772
948,458.931
950,459.09
952,459.248
954,459.404
956,459.56
958,459.713
960,459.865
962,460.017
964,460.167
966,460.317
968,460.464
970,460.61
972,460.756
974,460.899
976,461.041
978,461.184
980,461.323
982,461.462
984,461.6
986,461.736
988,461.872
990,462.006
992,462.139
994,462.27
996,462.402
998,462.531
1000,462.659
1000,462.659
1000,462.659
1010,463.284
1010,463.284
1010,463.284
1010,463.284
1010,463.284
1020,463.881
1020,463.881
1020,463.881
1020,463.881
1020,463.881
1030,464.451
1030,464.451
1030,464.451
1030,464.451
1030,464.451
1040,464.996
1040,464.996
1040,464.996
1040,464.996
1040,464.996
1050,465.516
1050,465.516
1050,465.516
1050,465.516
1050,465.516
1060,466.013
1060,466.013
1060,466.013
1060,466.013
1060,466.013
1070,466.488
1070,466.488
1070,466.488
1070,466.488
1070,466.488
1080,466.94
1080,466.94
1080,466.94
1080,466.94
1080,466.94
1090,467.373
1090,467.373
1090,467.373
1090,467.373
1090,467.373
1100,467.786
1100,467.786
1100,467.786
1100,467.786
1100,467.786
1110,468.18
1110,468.18
1110,468.18
1110,468.18
1110,468.18
1120,468.556
1120,468.556
1120,468.556
1120,468.556
1120,468.556
1130,468.915
1130,468.915
1130,468.915
1130,468.915
1130,468.915
1140,469.258
1140,469.258
1140,469.258
1140,469.258
1140,469.258
1150,469.585
1150,469.585
1150,469.585
1150,469.585
1150,469.585
1160,469.897
1160,469.897
1160,469.897
1160,469.897
1160,469.897
1170,470.195
1170,470.195
1170,470.195
1170,470.195
1170,470.195
1180,470.477
1180,470.477
1180,470.477
1180,470.477
1180,470.477
1190,470.749
1190,470.749
1190,470.749
1190,470.749
1190,470.749
1200,471.007
1200,471.007
1200,471.007
1200,471.007
1200,471.007
1210,471.253
1210,471.253
1210,471.253
1210,471.253
1210,471.253
1220,471.488
1220,471.488
1220,471.488
1220,471.488
1220,471.488
1230,471.712
1230,471.712
1230,471.712
1230,471.712
1230,471.712
1240,471.926
1240,471.926
1240,471.926
1240,471.926
1240,471.926
1250,472.129
1250,472.129
1250,472.129
1250,472.129
1250,472.129
1260,472.324
1260,472.324
1260,472.324
1260,472.324
1260,472.324
1270,472.509
1270,472.509
1270,472.509
1270,472.509
1270,472.509
1280,472.686
1280,472.686
1280,472.686
1280,472.686
1280,472.686
1290,472.854
1290,472.854
1290,472.854
1290,472.854
1290,472.854
1300,473.016
1300,473.016
1300,473.016
1300,473.016
1300,473.016
1310,473.168
1310,473.168
1310,473.168
1310,473.168
1310,473.168
1320,473.314
1320,473.314
1320,473.314
1320,473.314
1320,473.314
1330,473.454
1330,473.454
1330,473.454
1330,473.454
1330,473.454
1340,473.586
1340,473.586
1340,473.586
1340,473.586
1340,473.586
1350,473.714
1350,473.714
1350,473.714
1350,473.714
1350,473.714
1360,473.834
1360,473.834
1360,473.834
1360,473.834
1360,473.834
1370,473.948
1370,473.948
1370,473.948
1370,473.948
1370,473.948
1380,474.058
1380,474.058
1380,474.058
1380,474.058
1380,474.058
1390,474.163
1390,474.163
1390,474.163
1390,474.163
1390,474.163
1400,474.263
1400,474.263
1400,474.263
1400,474.263
1400,474.263
1410,474.357
1410,474.357
1410,474.357
1410,474.357
1410,474.357
1420,474.447
1420,474.447
1420,474.447
1420,474.447
1420,474.447
1430,474.535
1430,474.535
1430,474.535
1430,474.535
1430,474.535
1440,474.617
1440,474.617
1440,474.617
1440,474.617
1440,474.617
1450,474.695
1450,474.695
1450,474.695
1450,474.695
1450,474.695
1460,474.769
1460,474.769
1460,474.769
1460,474.769
1460,474.769
1470,474.84
1470,474.84
1470,474.84
1470,474.84
1470,474.84
1480,474.909
1480,474.909
1480,474.909
1480,474.909
1480,474.909
1490,474.974
1490,474.974
1490,474.974
1490,474.974
1490,474.974
1500,475.035
1500,475.035
1500,475.035
1500,475.035
1500,475.035
1510,475.093
1510,475.093
1510,475.093
1510,475.093
1510,475.093
1520,475.149
1520,475.149
1520,475.149
1520,475.149
1520,475.149
1530,475.202
1530,475.202
1530,475.202
1530,475.202
1530,475.202
1540,475.253
1540,475.253
1540,475.253
1540,475.253
1540,475.253
1550,475.303
1550,475.303
1550,475.303
1550,475.303
1550,475.303
1560,475.349
1560,475.349
1560,475.349
1560,475.349
1560,475.349
1570,475.393
1570,475.393
1570,475.393
1570,475.393
1570,475.393
1580,475.434
1580,475.434
1580,475.434
1580,475.434
1580,475.434
1590,475.474
1590,475.474
1590,475.474
1590,475.474
1590,475.474
1600,475.512
1600,475.512
1600,475.512
1600,475.512
1600,475.512
1610,475.548
1610,475.548
1610,475.548
1610,475.548
1610,475.548
1620,475.582
1620,475.582
1620,475.582
1620,475.582
1620,475.582
1630,475.615
1630,475.615
1630,475.615
1630,475.615
1630,475.615
1640,475.646
1640,475.646
1640,475.646
1640,475.646
1640,475.646
1650,475.676
1650,475.676
1650,475.676
1650,475.676
1650,475.676
1660,475.706
1660,475.706
1660,475.706
1660,475.706
1660,475.706
1670,475.734
1670,475.734
1670,475.734
1670,475.734
1670,475.734
1680,475.759
1680,475.759
1680,475.759
1680,475.759
1680,475.759
1690,475.784
1690,475.784
1690,475.784
1690,475.784
1690,475.784
1700,475.807
1700,475.807
1700,475.807
1700,475.807
1700,475.807
1710,475.83
1710,475.83
1710,475.83
1710,475.83
1710,475.83
1720,475.851
1720,475.851
1720,475.851
1720,475.851
1720,475.851
1730,475.871
1730,475.871
1730,475.871
1730,475.871
1730,475.871
1740,475.89
1740,475.89
1740,475.89
1740,475.89
1740,475.89
1750,475.909
1750,475.909
1750,475.909
1750,475.909
1750,475.909
1760,475.926
1760,475.926
1760,475.926
1760,475.926
1760,475.926
1770,475.943
1770,475.943
1770,475.943
1770,475.943
1770,475.943
1780,475.959
1780,475.959
1780,475.959
1780,475.959
1780,475.959
1790,475.974
1790,475.974
1790,475.974
1790,475.974
1790,475.974
1800,475.988
1800,475.988
1800,475.988