File: results/E_Glass/1Mass_DSC_FT/E_Glass_linear_dsc_M_FT_0_cone_Bh.csv
# Time [s], Convective Heat Transfer Coefficient [W/m2K]
0.000000000000000000e+00,0.000000000000000000e+00
2,0.000000000000000000e+00
4,0.000000000000000000e+00
6,0.0390835
8,0.0929941
10,0.180156
12,0.2995
14,0.445485
16,0.610997
18,0.78947
20,0.975628
22,1.16551
24,1.35626
26,1.54587
28,1.73296
30,1.91659
32,2.09615
34,2.27128
36,2.44175
38,2.60749
40,2.76849
42,2.9248
44,3.0765
46,3.22371
48,3.36657
50,3.50521
52,3.6398
54,3.77048
56,3.89741
58,4.02072
60,4.14057
62,4.25709
64,4.37042
66,4.48068
68,4.58801
70,4.69252
72,4.79432
74,4.89353
76,4.99023
78,5.08454
80,5.17655
82,5.26633
84,5.35398
86,5.43958
88,5.5232
90,5.60492
92,5.6848
94,5.76291
96,5.83931
98,5.91406
100,5.98722
102,6.05885
104,6.12898
106,6.19768
108,6.265
110,6.33096
112,6.39562
114,6.45903
116,6.52121
118,6.5822
120,6.64205
122,6.70078
124,6.75844
126,6.81505
128,6.87063
130,6.92524
132,6.97888
134,7.03159
136,7.08339
138,7.13431
140,7.18438
142,7.23362
144,7.28204
146,7.32968
148,7.37654
150,7.42267
152,7.46806
154,7.51274
156,7.55674
158,7.60005
160,7.64272
162,7.68474
164,7.72613
166,7.76692
168,7.80711
170,7.84671
172,7.88575
174,7.92424
176,7.96218
178,7.99959
180,8.03648
182,8.07287
184,8.10876
186,8.14416
188,8.17909
190,8.21355
192,8.24755
194,8.28111
196,8.31423
198,8.34693
200,8.3792
202,8.41106
204,8.44251
206,8.47357
208,8.50424
210,8.53453
212,8.56444
214,8.59398
216,8.62316
218,8.65198
220,8.68046
222,8.70859
224,8.73638
226,8.76384
228,8.79098
230,8.81779
232,8.84429
234,8.87047
236,8.89635
238,8.92192
240,8.9472
242,8.97218
244,8.99688
246,9.02129
248,9.04541
250,9.06926
252,9.09284
254,9.11615
256,9.13919
258,9.16197
260,9.18449
262,9.20675
264,9.22876
266,9.25053
268,9.27204
270,9.29331
272,9.31434
274,9.33514
276,9.35569
278,9.37602
280,9.39611
282,9.41598
284,9.43563
286,9.45505
288,9.47425
290,9.49323
292,9.512
294,9.53056
296,9.5489
298,9.56703
300,9.58496
302,9.60268
304,9.62019
306,9.6375
308,9.65461
310,9.67151
312,9.68822
314,9.70473
316,9.72104
318,9.73716
320,9.75308
322,9.76881
324,9.78434
326,9.79968
328,9.81484
330,9.8298
332,9.84457
334,9.85915
336,9.87355
338,9.88776
340,9.90178
342,9.91562
344,9.92927
346,9.94273
348,9.95602
350,9.96912
352,9.98204
354,9.99478
356,10.0073
358,10.0197
360,10.0319
362,10.0439
364,10.0558
366,10.0674
368,10.0789
370,10.0902
372,10.1013
374,10.1123
376,10.1231
378,10.1337
380,10.1441
382,10.1544
384,10.1645
386,10.1744
388,10.1842
390,10.1938
392,10.2032
394,10.2125
396,10.2216
398,10.2305
400,10.2393
402,10.2479
404,10.2563
406,10.2646
408,10.2728
410,10.2808
412,10.2886
414,10.2963
416,10.3038
418,10.3112
420,10.3184
422,10.3255
424,10.3324
426,10.3392
428,10.3459
430,10.3524
432,10.3588
434,10.3651
436,10.3712
438,10.3773
440,10.3831
442,10.3889
444,10.3945
446,10.4
448,10.4054
450,10.4107
452,10.4159
454,10.421
456,10.4259
458,10.4308
460,10.4356
462,10.4402
464,10.4448
466,10.4493
468,10.4536
470,10.4579
472,10.4621
474,10.4662
476,10.4703
478,10.4743
480,10.4781
482,10.4819
484,10.4857
486,10.4894
488,10.493
490,10.4965
492,10.5
494,10.5034
496,10.5068
498,10.5101
500,10.5133
502,10.5165
504,10.5197
506,10.5228
508,10.5258
510,10.5288
512,10.5318
514,10.5347
516,10.5376
518,10.5405
520,10.5433
522,10.5461
524,10.5489
526,10.5516
528,10.5543
530,10.557
532,10.5596
534,10.5623
536,10.5649
538,10.5675
540,10.57
542,10.5726
544,10.5751
546,10.5776
548,10.5801
550,10.5826
552,10.5851
554,10.5876
556,10.59
558,10.5925
560,10.5949
562,10.5973
564,10.5997
566,10.6022
568,10.6046
570,10.607
572,10.6094
574,10.6118
576,10.6142
578,10.6166
580,10.619
582,10.6214
584,10.6238
586,10.6262
588,10.6286
590,10.631
592,10.6334
594,10.6358
596,10.6382
598,10.6407
600,10.6431
602,10.6455
604,10.648
606,10.6504
608,10.6529
610,10.6553
612,10.6578
614,10.6603
616,10.6628
618,10.6653
620,10.6678
622,10.6703
624,10.6729
626,10.6754
628,10.678
630,10.6806
632,10.6832
634,10.6858
636,10.6884
638,10.691
640,10.6936
642,10.6963
644,10.699
646,10.7017
648,10.7044
650,10.7071
652,10.7098
654,10.7126
656,10.7154
658,10.7182
660,10.721
662,10.7238
664,10.7267
666,10.7295
668,10.7324
670,10.7353
672,10.7383
674,10.7412
676,10.7442
678,10.7472
680,10.7502
682,10.7532
684,10.7563
686,10.7594
688,10.7625
690,10.7656
692,10.7688
694,10.772
696,10.7752
698,10.7784
700,10.7817
702,10.785
704,10.7883
706,10.7917
708,10.795
710,10.7984
712,10.8019
714,10.8053
716,10.8088
718,10.8123
720,10.8159
722,10.8195
724,10.8231
726,10.8267
728,10.8304
730,10.8341
732,10.8378
734,10.8416
736,10.8454
738,10.8493
740,10.8532
742,10.8571
744,10.861
746,10.865
748,10.869
750,10.8731
752,10.8772
754,10.8813
756,10.8855
758,10.8897
760,10.894
762,10.8982
764,10.9026
766,10.9069
768,10.9113
770,10.9158
772,10.9203
774,10.9248
776,10.9294
778,10.934
780,10.9386
782,10.9433
784,10.948
786,10.9528
788,10.9576
790,10.9624
792,10.9673
794,10.9722
796,10.9772
798,10.9822
800,10.9872
802,10.9923
804,10.9974
806,11.0025
808,11.0077
810,11.0129
812,11.0181
814,11.0234
816,11.0287
818,11.034
820,11.0394
822,11.0447
824,11.0501
826,11.0555
828,11.061
830,11.0664
832,11.0719
834,11.0773
836,11.0828
838,11.0883
840,11.0938
842,11.0993
844,11.1048
846,11.1103
848,11.1158
850,11.1212
852,11.1267
854,11.1321
856,11.1376
858,11.143
860,11.1483
862,11.1537
864,11.159
866,11.1643
868,11.1696
870,11.1748
872,11.18
874,11.1852
876,11.1903
878,11.1954
880,11.2004
882,11.2054
884,11.2103
886,11.2152
888,11.22
890,11.2248
892,11.2296
894,11.2342
896,11.2389
898,11.2435
900,11.248
902,11.2525
904,11.2569
906,11.2613
908,11.2657
910,11.27
912,11.2742
914,11.2784
916,11.2825
918,11.2866
920,11.2907
922,11.2947
924,11.2987
926,11.3026
928,11.3065
930,11.3103
932,11.3141
934,11.3179
936,11.3216
938,11.3252
940,11.3289
942,11.3325
944,11.336
946,11.3396
948,11.343
950,11.3465
952,11.3499
954,11.3533
956,11.3566
958,11.3599
960,11.3632
962,11.3665
964,11.3697
966,11.3728
968,11.376
970,11.3791
972,11.3822
974,11.3852
976,11.3883
978,11.3913
980,11.3942
982,11.3972
984,11.4001
986,11.403
988,11.4058
990,11.4086
992,11.4114
994,11.4142
996,11.4169
998,11.4196
1000,11.4223
1000,11.4223
1000,11.4223
1010,11.4354
1010,11.4354
1010,11.4354
1010,11.4354
1010,11.4354
1020,11.4478
1020,11.4478
1020,11.4478
1020,11.4478
1020,11.4478
1030,11.4596
1030,11.4596
1030,11.4596
1030,11.4596
1030,11.4596
1040,11.4709
1040,11.4709
1040,11.4709
1040,11.4709
1040,11.4709
1050,11.4816
1050,11.4816
1050,11.4816
1050,11.4816
1050,11.4816
1060,11.4918
1060,11.4918
1060,11.4918
1060,11.4918
1060,11.4918
1070,11.5016
1070,11.5016
1070,11.5016
1070,11.5016
1070,11.5016
1080,11.5109
1080,11.5109
1080,11.5109
1080,11.5109
1080,11.5109
1090,11.5197
1090,11.5197
1090,11.5197
1090,11.5197
1090,11.5197
1100,11.5281
1100,11.5281
1100,11.5281
1100,11.5281
1100,11.5281
1110,11.5361
1110,11.5361
1110,11.5361
1110,11.5361
1110,11.5361
1120,11.5438
1120,11.5438
1120,11.5438
1120,11.5438
1120,11.5438
1130,11.5511
1130,11.5511
1130,11.5511
1130,11.5511
1130,11.5511
1140,11.558
1140,11.558
1140,11.558
1140,11.558
1140,11.558
1150,11.5646
1150,11.5646
1150,11.5646
1150,11.5646
1150,11.5646
1160,11.5709
1160,11.5709
1160,11.5709
1160,11.5709
1160,11.5709
1170,11.5769
1170,11.5769
1170,11.5769
1170,11.5769
1170,11.5769
1180,11.5826
1180,11.5826
1180,11.5826
1180,11.5826
1180,11.5826
1190,11.588
1190,11.588
1190,11.588
1190,11.588
1190,11.588
1200,11.5932
1200,11.5932
1200,11.5932
1200,11.5932
1200,11.5932
1210,11.5982
1210,11.5982
1210,11.5982
1210,11.5982
1210,11.5982
1220,11.6029
1220,11.6029
1220,11.6029
1220,11.6029
1220,11.6029
1230,11.6074
1230,11.6074
1230,11.6074
1230,11.6074
1230,11.6074
1240,11.6116
1240,11.6116
1240,11.6116
1240,11.6116
1240,11.6116
1250,11.6157
1250,11.6157
1250,11.6157
1250,11.6157
1250,11.6157
1260,11.6196
1260,11.6196
1260,11.6196
1260,11.6196
1260,11.6196
1270,11.6233
1270,11.6233
1270,11.6233
1270,11.6233
1270,11.6233
1280,11.6268
1280,11.6268
1280,11.6268
1280,11.6268
1280,11.6268
1290,11.6301
1290,11.6301
1290,11.6301
1290,11.6301
1290,11.6301
1300,11.6333
1300,11.6333
1300,11.6333
1300,11.6333
1300,11.6333
1310,11.6364
1310,11.6364
1310,11.6364
1310,11.6364
1310,11.6364
1320,11.6393
1320,11.6393
1320,11.6393
1320,11.6393
1320,11.6393
1330,11.642
1330,11.642
1330,11.642
1330,11.642
1330,11.642
1340,11.6447
1340,11.6447
1340,11.6447
1340,11.6447
1340,11.6447
1350,11.6472
1350,11.6472
1350,11.6472
1350,11.6472
1350,11.6472
1360,11.6496
1360,11.6496
1360,11.6496
1360,11.6496
1360,11.6496
1370,11.6518
1370,11.6518
1370,11.6518
1370,11.6518
1370,11.6518
1380,11.654
1380,11.654
1380,11.654
1380,11.654
1380,11.654
1390,11.6561
1390,11.6561
1390,11.6561
1390,11.6561
1390,11.6561
1400,11.6581
1400,11.6581
1400,11.6581
1400,11.6581
1400,11.6581
1410,11.6599
1410,11.6599
1410,11.6599
1410,11.6599
1410,11.6599
1420,11.6617
1420,11.6617
1420,11.6617
1420,11.6617
1420,11.6617
1430,11.6634
1430,11.6634
1430,11.6634
1430,11.6634
1430,11.6634
1440,11.665
1440,11.665
1440,11.665
1440,11.665
1440,11.665
1450,11.6666
1450,11.6666
1450,11.6666
1450,11.6666
1450,11.6666
1460,11.6681
1460,11.6681
1460,11.6681
1460,11.6681
1460,11.6681
1470,11.6695
1470,11.6695
1470,11.6695
1470,11.6695
1470,11.6695
1480,11.6708
1480,11.6708
1480,11.6708
1480,11.6708
1480,11.6708
1490,11.6721
1490,11.6721
1490,11.6721
1490,11.6721
1490,11.6721
1500,11.6733
1500,11.6733
1500,11.6733
1500,11.6733
1500,11.6733
1510,11.6744
1510,11.6744
1510,11.6744
1510,11.6744
1510,11.6744
1520,11.6755
1520,11.6755
1520,11.6755
1520,11.6755
1520,11.6755
1530,11.6766
1530,11.6766
1530,11.6766
1530,11.6766
1530,11.6766
1540,11.6776
1540,11.6776
1540,11.6776
1540,11.6776
1540,11.6776
1550,11.6785
1550,11.6785
1550,11.6785
1550,11.6785
1550,11.6785
1560,11.6795
1560,11.6795
1560,11.6795
1560,11.6795
1560,11.6795
1570,11.6803
1570,11.6803
1570,11.6803
1570,11.6803
1570,11.6803
1580,11.6811
1580,11.6811
1580,11.6811
1580,11.6811
1580,11.6811
1590,11.6819
1590,11.6819
1590,11.6819
1590,11.6819
1590,11.6819
1600,11.6827
1600,11.6827
1600,11.6827
1600,11.6827
1600,11.6827
1610,11.6834
1610,11.6834
1610,11.6834
1610,11.6834
1610,11.6834
1620,11.6841
1620,11.6841
1620,11.6841
1620,11.6841
1620,11.6841
1630,11.6847
1630,11.6847
1630,11.6847
1630,11.6847
1630,11.6847
1640,11.6853
1640,11.6853
1640,11.6853
1640,11.6853
1640,11.6853
1650,11.6859
1650,11.6859
1650,11.6859
1650,11.6859
1650,11.6859
1660,11.6865
1660,11.6865
1660,11.6865
1660,11.6865
1660,11.6865
1670,11.687
1670,11.687
1670,11.687
1670,11.687
1670,11.687
1680,11.6875
1680,11.6875
1680,11.6875
1680,11.6875
1680,11.6875
1690,11.688
1690,11.688
1690,11.688
1690,11.688
1690,11.688
1700,11.6885
1700,11.6885
1700,11.6885
1700,11.6885
1700,11.6885
1710,11.6889
1710,11.6889
1710,11.6889
1710,11.6889
1710,11.6889
1720,11.6893
1720,11.6893
1720,11.6893
1720,11.6893
1720,11.6893
1730,11.6897
1730,11.6897
1730,11.6897
1730,11.6897
1730,11.6897
1740,11.6901
1740,11.6901
1740,11.6901
1740,11.6901
1740,11.6901
1750,11.6905
1750,11.6905
1750,11.6905
1750,11.6905
1750,11.6905
1760,11.6908
1760,11.6908
1760,11.6908
1760,11.6908
1760,11.6908
1770,11.6911
1770,11.6911
1770,11.6911
1770,11.6911
1770,11.6911
1780,11.6915
1780,11.6915
1780,11.6915
1780,11.6915
1780,11.6915
1790,11.6918
1790,11.6918
1790,11.6918
1790,11.6918
1790,11.6918
1800,11.692
1800,11.692
1800,11.692