File: results/E_Glass/1Mass_DSC_BT/E_Glass_linear_dsc_M_BT_0_cone_Bh.csv
# Time [s], Convective Heat Transfer Coefficient [W/m2K]
0.000000000000000000e+00,0.000000000000000000e+00
2,0.000000000000000000e+00
4,0.000000000000000000e+00
6,0.0357403
8,0.0882935
10,0.173142
12,0.290558
14,0.435131
16,0.59977
18,0.777788
20,0.963777
22,1.15369
24,1.3446
26,1.53446
28,1.72184
30,1.9058
32,2.08571
34,2.26118
36,2.43201
38,2.59809
40,2.75941
42,2.91603
44,3.06803
46,3.21553
48,3.35865
50,3.49756
52,3.63238
54,3.76329
56,3.89042
58,4.01392
60,4.13395
62,4.25064
64,4.36412
66,4.47453
68,4.58199
70,4.68662
72,4.78853
74,4.88784
76,4.98463
78,5.07902
80,5.1711
82,5.26095
84,5.34866
86,5.43431
88,5.51798
90,5.59974
92,5.67965
94,5.75779
96,5.83422
98,5.909
100,5.98218
102,6.05382
104,6.12398
106,6.19269
108,6.26002
110,6.32599
112,6.39067
114,6.45408
116,6.51628
118,6.57728
120,6.63714
122,6.69589
124,6.75356
126,6.81018
128,6.86579
130,6.9204
132,6.97406
134,7.02679
136,7.07861
138,7.12955
140,7.17964
142,7.22889
144,7.27734
146,7.32499
148,7.37188
150,7.41802
152,7.46343
154,7.50813
156,7.55214
158,7.59548
160,7.63816
162,7.68019
164,7.7216
166,7.76241
168,7.80261
170,7.84223
172,7.88128
174,7.91978
176,7.95773
178,7.99515
180,8.03206
182,8.06845
184,8.10435
186,8.13976
188,8.17469
190,8.20916
192,8.24318
194,8.27674
196,8.30987
198,8.34257
200,8.37484
202,8.40671
204,8.43817
206,8.46923
208,8.4999
210,8.53019
212,8.56011
214,8.58965
216,8.61884
218,8.64766
220,8.67614
222,8.70428
224,8.73207
226,8.75954
228,8.78668
230,8.81349
232,8.84
234,8.86618
236,8.89207
238,8.91765
240,8.94293
242,8.96792
244,8.99263
246,9.01704
248,9.04118
250,9.06504
252,9.08863
254,9.11195
256,9.13501
258,9.1578
260,9.18033
262,9.20261
264,9.22464
266,9.24641
268,9.26794
270,9.28923
272,9.31028
274,9.33109
276,9.35166
278,9.372
280,9.39211
282,9.412
284,9.43166
286,9.45109
288,9.47031
290,9.48931
292,9.50809
294,9.52665
296,9.54501
298,9.56315
300,9.58108
302,9.59881
304,9.61633
306,9.63365
308,9.65077
310,9.66768
312,9.6844
314,9.70091
316,9.71723
318,9.73336
320,9.74928
322,9.76502
324,9.78056
326,9.79591
328,9.81107
330,9.82604
332,9.84082
334,9.85542
336,9.86982
338,9.88404
340,9.89807
342,9.91192
344,9.92558
346,9.93906
348,9.95236
350,9.96547
352,9.9784
354,9.99115
356,10.0037
358,10.0161
360,10.0283
362,10.0404
364,10.0522
366,10.0639
368,10.0754
370,10.0867
372,10.0978
374,10.1088
376,10.1196
378,10.1302
380,10.1407
382,10.151
384,10.1611
386,10.171
388,10.1808
390,10.1904
392,10.1998
394,10.2091
396,10.2182
398,10.2271
400,10.2359
402,10.2445
404,10.253
406,10.2613
408,10.2694
410,10.2774
412,10.2852
414,10.2929
416,10.3004
418,10.3078
420,10.3151
422,10.3221
424,10.3291
426,10.3359
428,10.3425
430,10.3491
432,10.3554
434,10.3617
436,10.3678
438,10.3738
440,10.3797
442,10.3854
444,10.3911
446,10.3966
448,10.4019
450,10.4072
452,10.4124
454,10.4174
456,10.4224
458,10.4272
460,10.432
462,10.4366
464,10.4411
466,10.4456
468,10.45
470,10.4542
472,10.4584
474,10.4625
476,10.4665
478,10.4705
480,10.4743
482,10.4781
484,10.4819
486,10.4855
488,10.4891
490,10.4926
492,10.4961
494,10.4995
496,10.5028
498,10.5061
500,10.5093
502,10.5125
504,10.5157
506,10.5187
508,10.5218
510,10.5248
512,10.5278
514,10.5307
516,10.5336
518,10.5364
520,10.5392
522,10.542
524,10.5448
526,10.5475
528,10.5502
530,10.5528
532,10.5555
534,10.5581
536,10.5607
538,10.5633
540,10.5659
542,10.5684
544,10.5709
546,10.5734
548,10.5759
550,10.5784
552,10.5809
554,10.5834
556,10.5858
558,10.5882
560,10.5907
562,10.5931
564,10.5955
566,10.5979
568,10.6003
570,10.6028
572,10.6052
574,10.6076
576,10.6099
578,10.6123
580,10.6147
582,10.6171
584,10.6195
586,10.6219
588,10.6243
590,10.6267
592,10.6292
594,10.6316
596,10.634
598,10.6364
600,10.6388
602,10.6413
604,10.6437
606,10.6462
608,10.6486
610,10.6511
612,10.6535
614,10.656
616,10.6585
618,10.661
620,10.6635
622,10.666
624,10.6686
626,10.6711
628,10.6737
630,10.6762
632,10.6788
634,10.6814
636,10.684
638,10.6866
640,10.6893
642,10.6919
644,10.6946
646,10.6973
648,10.7
650,10.7027
652,10.7054
654,10.7081
656,10.7109
658,10.7137
660,10.7165
662,10.7193
664,10.7221
666,10.725
668,10.7279
670,10.7307
672,10.7337
674,10.7366
676,10.7395
678,10.7425
680,10.7455
682,10.7485
684,10.7516
686,10.7546
688,10.7577
690,10.7608
692,10.764
694,10.7671
696,10.7703
698,10.7735
700,10.7767
702,10.78
704,10.7833
706,10.7866
708,10.7899
710,10.7933
712,10.7967
714,10.8001
716,10.8036
718,10.807
720,10.8106
722,10.8141
724,10.8177
726,10.8213
728,10.8249
730,10.8286
732,10.8323
734,10.836
736,10.8398
738,10.8436
740,10.8474
742,10.8513
744,10.8552
746,10.8591
748,10.8631
750,10.8671
752,10.8712
754,10.8753
756,10.8794
758,10.8835
760,10.8877
762,10.892
764,10.8963
766,10.9006
768,10.9049
770,10.9093
772,10.9138
774,10.9182
776,10.9228
778,10.9273
780,10.9319
782,10.9366
784,10.9412
786,10.946
788,10.9507
790,10.9555
792,10.9604
794,10.9652
796,10.9702
798,10.9751
800,10.9801
802,10.9851
804,10.9902
806,10.9953
808,11.0004
810,11.0056
812,11.0108
814,11.0161
816,11.0213
818,11.0266
820,11.032
822,11.0373
824,11.0427
826,11.0481
828,11.0535
830,11.0589
832,11.0644
834,11.0698
836,11.0753
838,11.0808
840,11.0863
842,11.0918
844,11.0973
846,11.1028
848,11.1083
850,11.1138
852,11.1192
854,11.1247
856,11.1301
858,11.1356
860,11.1409
862,11.1463
864,11.1517
866,11.157
868,11.1623
870,11.1675
872,11.1727
874,11.1779
876,11.183
878,11.1881
880,11.1931
882,11.1981
884,11.2031
886,11.208
888,11.2128
890,11.2176
892,11.2224
894,11.2271
896,11.2317
898,11.2363
900,11.2409
902,11.2454
904,11.2498
906,11.2542
908,11.2585
910,11.2628
912,11.2671
914,11.2712
916,11.2754
918,11.2795
920,11.2835
922,11.2876
924,11.2915
926,11.2954
928,11.2993
930,11.3032
932,11.307
934,11.3107
936,11.3144
938,11.3181
940,11.3217
942,11.3253
944,11.3289
946,11.3324
948,11.3359
950,11.3394
952,11.3428
954,11.3462
956,11.3495
958,11.3528
960,11.3561
962,11.3594
964,11.3626
966,11.3658
968,11.3689
970,11.372
972,11.3751
974,11.3782
976,11.3812
978,11.3842
980,11.3872
982,11.3902
984,11.3931
986,11.396
988,11.3988
990,11.4017
992,11.4045
994,11.4072
996,11.41
998,11.4127
1000,11.4154
1000,11.4154
1000,11.4154
1010,11.4285
1010,11.4285
1010,11.4285
1010,11.4285
1010,11.4285
1020,11.441
1020,11.441
1020,11.441
1020,11.441
1020,11.441
1030,11.4529
1030,11.4529
1030,11.4529
1030,11.4529
1030,11.4529
1040,11.4643
1040,11.4643
1040,11.4643
1040,11.4643
1040,11.4643
1050,11.4751
1050,11.4751
1050,11.4751
1050,11.4751
1050,11.4751
1060,11.4854
1060,11.4854
1060,11.4854
1060,11.4854
1060,11.4854
1070,11.4953
1070,11.4953
1070,11.4953
1070,11.4953
1070,11.4953
1080,11.5046
1080,11.5046
1080,11.5046
1080,11.5046
1080,11.5046
1090,11.5136
1090,11.5136
1090,11.5136
1090,11.5136
1090,11.5136
1100,11.5221
1100,11.5221
1100,11.5221
1100,11.5221
1100,11.5221
1110,11.5302
1110,11.5302
1110,11.5302
1110,11.5302
1110,11.5302
1120,11.538
1120,11.538
1120,11.538
1120,11.538
1120,11.538
1130,11.5454
1130,11.5454
1130,11.5454
1130,11.5454
1130,11.5454
1140,11.5524
1140,11.5524
1140,11.5524
1140,11.5524
1140,11.5524
1150,11.5592
1150,11.5592
1150,11.5592
1150,11.5592
1150,11.5592
1160,11.5656
1160,11.5656
1160,11.5656
1160,11.5656
1160,11.5656
1170,11.5717
1170,11.5717
1170,11.5717
1170,11.5717
1170,11.5717
1180,11.5775
1180,11.5775
1180,11.5775
1180,11.5775
1180,11.5775
1190,11.5831
1190,11.5831
1190,11.5831
1190,11.5831
1190,11.5831
1200,11.5884
1200,11.5884
1200,11.5884
1200,11.5884
1200,11.5884
1210,11.5934
1210,11.5934
1210,11.5934
1210,11.5934
1210,11.5934
1220,11.5982
1220,11.5982
1220,11.5982
1220,11.5982
1220,11.5982
1230,11.6028
1230,11.6028
1230,11.6028
1230,11.6028
1230,11.6028
1240,11.6072
1240,11.6072
1240,11.6072
1240,11.6072
1240,11.6072
1250,11.6114
1250,11.6114
1250,11.6114
1250,11.6114
1250,11.6114
1260,11.6154
1260,11.6154
1260,11.6154
1260,11.6154
1260,11.6154
1270,11.6192
1270,11.6192
1270,11.6192
1270,11.6192
1270,11.6192
1280,11.6228
1280,11.6228
1280,11.6228
1280,11.6228
1280,11.6228
1290,11.6263
1290,11.6263
1290,11.6263
1290,11.6263
1290,11.6263
1300,11.6296
1300,11.6296
1300,11.6296
1300,11.6296
1300,11.6296
1310,11.6327
1310,11.6327
1310,11.6327
1310,11.6327
1310,11.6327
1320,11.6357
1320,11.6357
1320,11.6357
1320,11.6357
1320,11.6357
1330,11.6386
1330,11.6386
1330,11.6386
1330,11.6386
1330,11.6386
1340,11.6413
1340,11.6413
1340,11.6413
1340,11.6413
1340,11.6413
1350,11.6439
1350,11.6439
1350,11.6439
1350,11.6439
1350,11.6439
1360,11.6464
1360,11.6464
1360,11.6464
1360,11.6464
1360,11.6464
1370,11.6488
1370,11.6488
1370,11.6488
1370,11.6488
1370,11.6488
1380,11.651
1380,11.651
1380,11.651
1380,11.651
1380,11.651
1390,11.6532
1390,11.6532
1390,11.6532
1390,11.6532
1390,11.6532
1400,11.6553
1400,11.6553
1400,11.6553
1400,11.6553
1400,11.6553
1410,11.6572
1410,11.6572
1410,11.6572
1410,11.6572
1410,11.6572
1420,11.6591
1420,11.6591
1420,11.6591
1420,11.6591
1420,11.6591
1430,11.6609
1430,11.6609
1430,11.6609
1430,11.6609
1430,11.6609
1440,11.6626
1440,11.6626
1440,11.6626
1440,11.6626
1440,11.6626
1450,11.6642
1450,11.6642
1450,11.6642
1450,11.6642
1450,11.6642
1460,11.6657
1460,11.6657
1460,11.6657
1460,11.6657
1460,11.6657
1470,11.6672
1470,11.6672
1470,11.6672
1470,11.6672
1470,11.6672
1480,11.6686
1480,11.6686
1480,11.6686
1480,11.6686
1480,11.6686
1490,11.67
1490,11.67
1490,11.67
1490,11.67
1490,11.67
1500,11.6713
1500,11.6713
1500,11.6713
1500,11.6713
1500,11.6713
1510,11.6725
1510,11.6725
1510,11.6725
1510,11.6725
1510,11.6725
1520,11.6736
1520,11.6736
1520,11.6736
1520,11.6736
1520,11.6736
1530,11.6748
1530,11.6748
1530,11.6748
1530,11.6748
1530,11.6748
1540,11.6758
1540,11.6758
1540,11.6758
1540,11.6758
1540,11.6758
1550,11.6768
1550,11.6768
1550,11.6768
1550,11.6768
1550,11.6768
1560,11.6778
1560,11.6778
1560,11.6778
1560,11.6778
1560,11.6778
1570,11.6787
1570,11.6787
1570,11.6787
1570,11.6787
1570,11.6787
1580,11.6796
1580,11.6796
1580,11.6796
1580,11.6796
1580,11.6796
1590,11.6804
1590,11.6804
1590,11.6804
1590,11.6804
1590,11.6804
1600,11.6812
1600,11.6812
1600,11.6812
1600,11.6812
1600,11.6812
1610,11.682
1610,11.682
1610,11.682
1610,11.682
1610,11.682
1620,11.6827
1620,11.6827
1620,11.6827
1620,11.6827
1620,11.6827
1630,11.6834
1630,11.6834
1630,11.6834
1630,11.6834
1630,11.6834
1640,11.6841
1640,11.6841
1640,11.6841
1640,11.6841
1640,11.6841
1650,11.6847
1650,11.6847
1650,11.6847
1650,11.6847
1650,11.6847
1660,11.6853
1660,11.6853
1660,11.6853
1660,11.6853
1660,11.6853
1670,11.6859
1670,11.6859
1670,11.6859
1670,11.6859
1670,11.6859
1680,11.6864
1680,11.6864
1680,11.6864
1680,11.6864
1680,11.6864
1690,11.687
1690,11.687
1690,11.687
1690,11.687
1690,11.687
1700,11.6875
1700,11.6875
1700,11.6875
1700,11.6875
1700,11.6875
1710,11.6879
1710,11.6879
1710,11.6879
1710,11.6879
1710,11.6879
1720,11.6884
1720,11.6884
1720,11.6884
1720,11.6884
1720,11.6884
1730,11.6888
1730,11.6888
1730,11.6888
1730,11.6888
1730,11.6888
1740,11.6892
1740,11.6892
1740,11.6892
1740,11.6892
1740,11.6892
1750,11.6896
1750,11.6896
1750,11.6896
1750,11.6896
1750,11.6896
1760,11.69
1760,11.69
1760,11.69
1760,11.69
1760,11.69
1770,11.6904
1770,11.6904
1770,11.6904
1770,11.6904
1770,11.6904
1780,11.6907
1780,11.6907
1780,11.6907
1780,11.6907
1780,11.6907
1790,11.691
1790,11.691
1790,11.691
1790,11.691
1790,11.691
1800,11.6913
1800,11.6913
1800,11.6913