File: results/E_Glass/1Mass_DSC_BT/E_Glass_linear_dsc_M_BT_0_cone_FT.csv
# Time [s], Temperature [C]
0.000000000000000000e+00,25
2,46.9579
4,68.9372
6,84.359
8,96.6875
10,107.139
12,116.298
14,124.497
16,131.946
18,138.79
20,145.13
22,151.043
24,156.589
26,161.813
28,166.754
30,171.443
32,175.905
34,180.161
36,184.23
38,188.129
40,191.871
42,195.468
44,198.931
46,202.27
48,205.493
50,208.609
52,211.624
54,214.545
56,217.378
58,220.128
60,222.801
62,225.4
64,227.93
66,230.396
68,232.801
70,235.149
72,237.442
74,239.684
76,241.878
78,244.026
80,246.131
82,248.195
84,250.222
86,252.211
88,254.166
90,256.089
92,257.98
94,259.841
96,261.674
98,263.48
100,265.259
102,267.013
104,268.743
106,270.448
108,272.131
110,273.79
112,275.428
114,277.044
116,278.639
118,280.214
120,281.768
122,283.303
124,284.819
126,286.317
128,287.797
130,289.26
132,290.706
134,292.135
136,293.549
138,294.948
140,296.332
142,297.701
144,299.057
146,300.399
148,301.727
150,303.044
152,304.347
154,305.638
156,306.917
158,308.185
160,309.441
162,310.687
164,311.921
166,313.144
168,314.357
170,315.559
172,316.751
174,317.933
176,319.105
178,320.267
180,321.42
182,322.562
184,323.695
186,324.819
188,325.933
190,327.037
192,328.133
194,329.22
196,330.296
198,331.364
200,332.423
202,333.472
204,334.514
206,335.546
208,336.568
210,337.582
212,338.587
214,339.582
216,340.57
218,341.549
220,342.517
222,343.478
224,344.43
226,345.372
228,346.306
230,347.231
232,348.146
234,349.054
236,349.953
238,350.841
240,351.723
242,352.595
244,353.456
246,354.311
248,355.157
250,355.991
252,356.82
254,357.64
256,358.447
258,359.25
260,360.043
262,360.824
264,361.6
266,362.367
268,363.122
270,363.873
272,364.614
274,365.343
276,366.068
278,366.784
280,367.487
282,368.188
284,368.879
286,369.557
288,370.234
290,370.901
292,371.555
294,372.208
296,372.853
298,373.483
300,374.114
302,374.736
304,375.344
306,375.953
308,376.554
310,377.141
312,377.73
314,378.311
316,378.878
318,379.447
320,380.009
322,380.558
324,381.109
326,381.653
328,382.184
330,382.719
332,383.247
334,383.761
336,384.28
338,384.793
340,385.293
342,385.798
344,386.296
346,386.783
348,387.274
350,387.76
352,388.234
354,388.713
356,389.188
358,389.65
360,390.119
362,390.582
364,391.034
366,391.493
368,391.946
370,392.389
372,392.838
374,393.283
376,393.717
378,394.157
380,394.593
382,395.02
384,395.452
386,395.881
388,396.299
390,396.724
392,397.145
394,397.557
396,397.974
398,398.388
400,398.793
402,399.204
404,399.61
406,400.009
408,400.412
410,400.812
412,401.205
414,401.601
416,401.995
418,402.381
420,402.77
422,403.157
424,403.536
426,403.919
428,404.298
430,404.671
432,405.046
434,405.419
436,405.785
438,406.153
440,406.518
442,406.877
444,407.238
446,407.595
448,407.947
450,408.3
452,408.649
454,408.994
456,409.339
458,409.68
460,410.018
462,410.355
464,410.689
466,411.019
468,411.347
470,411.673
472,411.995
474,412.316
476,412.634
478,412.948
480,413.261
482,413.571
484,413.877
486,414.182
488,414.484
490,414.783
492,415.08
494,415.375
496,415.666
498,415.955
500,416.242
502,416.527
504,416.808
506,417.088
508,417.365
510,417.64
512,417.912
514,418.182
516,418.45
518,418.716
520,418.98
522,419.241
524,419.5
526,419.757
528,420.012
530,420.265
532,420.515
534,420.764
536,421.011
538,421.256
540,421.499
542,421.741
544,421.98
546,422.217
548,422.453
550,422.687
552,422.92
554,423.15
556,423.379
558,423.607
560,423.832
562,424.056
564,424.279
566,424.5
568,424.72
570,424.938
572,425.155
574,425.37
576,425.584
578,425.797
580,426.008
582,426.217
584,426.426
586,426.633
588,426.84
590,427.045
592,427.249
594,427.451
596,427.653
598,427.853
600,428.052
602,428.25
604,428.448
606,428.644
608,428.839
610,429.033
612,429.226
614,429.418
616,429.61
618,429.8
620,429.99
622,430.178
624,430.366
626,430.553
628,430.739
630,430.924
632,431.109
634,431.293
636,431.476
638,431.659
640,431.84
642,432.021
644,432.202
646,432.381
648,432.56
650,432.739
652,432.917
654,433.094
656,433.271
658,433.447
660,433.623
662,433.798
664,433.972
666,434.147
668,434.32
670,434.494
672,434.667
674,434.839
676,435.011
678,435.183
680,435.354
682,435.525
684,435.695
686,435.866
688,436.035
690,436.205
692,436.375
694,436.543
696,436.712
698,436.881
700,437.049
702,437.217
704,437.385
706,437.553
708,437.721
710,437.889
712,438.056
714,438.223
716,438.39
718,438.557
720,438.724
722,438.891
724,439.058
726,439.225
728,439.392
730,439.558
732,439.725
734,439.892
736,440.059
738,440.226
740,440.393
742,440.56
744,440.727
746,440.895
748,441.062
750,441.23
752,441.398
754,441.566
756,441.734
758,441.902
760,442.07
762,442.239
764,442.408
766,442.578
768,442.747
770,442.917
772,443.087
774,443.258
776,443.428
778,443.6
780,443.771
782,443.943
784,444.115
786,444.288
788,444.46
790,444.634
792,444.808
794,444.982
796,445.157
798,445.332
800,445.507
802,445.683
804,445.86
806,446.037
808,446.215
810,446.393
812,446.571
814,446.75
816,446.93
818,447.11
820,447.29
822,447.471
824,447.653
826,447.835
828,448.018
830,448.201
832,448.384
834,448.569
836,448.753
838,448.938
840,449.124
842,449.31
844,449.496
846,449.683
848,449.87
850,450.058
852,450.246
854,450.434
856,450.623
858,450.811
860,451.001
862,451.19
864,451.379
866,451.569
868,451.759
870,451.948
872,452.138
874,452.328
876,452.518
878,452.707
880,452.897
882,453.086
884,453.275
886,453.464
888,453.652
890,453.84
892,454.027
894,454.215
896,454.401
898,454.587
900,454.772
902,454.957
904,455.141
906,455.324
908,455.506
910,455.688
912,455.868
914,456.048
916,456.227
918,456.404
920,456.581
922,456.756
924,456.931
926,457.104
928,457.277
930,457.448
932,457.618
934,457.786
936,457.954
938,458.12
940,458.285
942,458.449
944,458.612
946,458.773
948,458.933
950,459.092
952,459.249
954,459.405
956,459.56
958,459.714
960,459.866
962,460.017
964,460.167
966,460.315
968,460.462
970,460.608
972,460.753
974,460.896
976,461.038
978,461.179
980,461.319
982,461.457
984,461.594
986,461.73
988,461.865
990,461.998
992,462.131
994,462.262
996,462.392
998,462.52
1000,462.648
1000,462.648
1000,462.648
1010,463.269
1010,463.269
1010,463.269
1010,463.269
1010,463.269
1020,463.861
1020,463.861
1020,463.861
1020,463.861
1020,463.861
1030,464.428
1030,464.428
1030,464.428
1030,464.428
1030,464.428
1040,464.968
1040,464.968
1040,464.968
1040,464.968
1040,464.968
1050,465.485
1050,465.485
1050,465.485
1050,465.485
1050,465.485
1060,465.978
1060,465.978
1060,465.978
1060,465.978
1060,465.978
1070,466.449
1070,466.449
1070,466.449
1070,466.449
1070,466.449
1080,466.898
1080,466.898
1080,466.898
1080,466.898
1080,466.898
1090,467.327
1090,467.327
1090,467.327
1090,467.327
1090,467.327
1100,467.736
1100,467.736
1100,467.736
1100,467.736
1100,467.736
1110,468.127
1110,468.127
1110,468.127
1110,468.127
1110,468.127
1120,468.5
1120,468.5
1120,468.5
1120,468.5
1120,468.5
1130,468.856
1130,468.856
1130,468.856
1130,468.856
1130,468.856
1140,469.196
1140,469.196
1140,469.196
1140,469.196
1140,469.196
1150,469.521
1150,469.521
1150,469.521
1150,469.521
1150,469.521
1160,469.831
1160,469.831
1160,469.831
1160,469.831
1160,469.831
1170,470.126
1170,470.126
1170,470.126
1170,470.126
1170,470.126
1180,470.408
1180,470.408
1180,470.408
1180,470.408
1180,470.408
1190,470.677
1190,470.677
1190,470.677
1190,470.677
1190,470.677
1200,470.934
1200,470.934
1200,470.934
1200,470.934
1200,470.934
1210,471.179
1210,471.179
1210,471.179
1210,471.179
1210,471.179
1220,471.413
1220,471.413
1220,471.413
1220,471.413
1220,471.413
1230,471.637
1230,471.637
1230,471.637
1230,471.637
1230,471.637
1240,471.85
1240,471.85
1240,471.85
1240,471.85
1240,471.85
1250,472.053
1250,472.053
1250,472.053
1250,472.053
1250,472.053
1260,472.247
1260,472.247
1260,472.247
1260,472.247
1260,472.247
1270,472.432
1270,472.432
1270,472.432
1270,472.432
1270,472.432
1280,472.609
1280,472.609
1280,472.609
1280,472.609
1280,472.609
1290,472.777
1290,472.777
1290,472.777
1290,472.777
1290,472.777
1300,472.938
1300,472.938
1300,472.938
1300,472.938
1300,472.938
1310,473.092
1310,473.092
1310,473.092
1310,473.092
1310,473.092
1320,473.238
1320,473.238
1320,473.238
1320,473.238
1320,473.238
1330,473.378
1330,473.378
1330,473.378
1330,473.378
1330,473.378
1340,473.511
1340,473.511
1340,473.511
1340,473.511
1340,473.511
1350,473.638
1350,473.638
1350,473.638
1350,473.638
1350,473.638
1360,473.76
1360,473.76
1360,473.76
1360,473.76
1360,473.76
1370,473.876
1370,473.876
1370,473.876
1370,473.876
1370,473.876
1380,473.986
1380,473.986
1380,473.986
1380,473.986
1380,473.986
1390,474.091
1390,474.091
1390,474.091
1390,474.091
1390,474.091
1400,474.192
1400,474.192
1400,474.192
1400,474.192
1400,474.192
1410,474.288
1410,474.288
1410,474.288
1410,474.288
1410,474.288
1420,474.38
1420,474.38
1420,474.38
1420,474.38
1420,474.38
1430,474.467
1430,474.467
1430,474.467
1430,474.467
1430,474.467
1440,474.55
1440,474.55
1440,474.55
1440,474.55
1440,474.55
1450,474.63
1450,474.63
1450,474.63
1450,474.63
1450,474.63
1460,474.706
1460,474.706
1460,474.706
1460,474.706
1460,474.706
1470,474.778
1470,474.778
1470,474.778
1470,474.778
1470,474.778
1480,474.847
1480,474.847
1480,474.847
1480,474.847
1480,474.847
1490,474.913
1490,474.913
1490,474.913
1490,474.913
1490,474.913
1500,474.976
1500,474.976
1500,474.976
1500,474.976
1500,474.976
1510,475.036
1510,475.036
1510,475.036
1510,475.036
1510,475.036
1520,475.093
1520,475.093
1520,475.093
1520,475.093
1520,475.093
1530,475.148
1530,475.148
1530,475.148
1530,475.148
1530,475.148
1540,475.2
1540,475.2
1540,475.2
1540,475.2
1540,475.2
1550,475.249
1550,475.249
1550,475.249
1550,475.249
1550,475.249
1560,475.297
1560,475.297
1560,475.297
1560,475.297
1560,475.297
1570,475.342
1570,475.342
1570,475.342
1570,475.342
1570,475.342
1580,475.385
1580,475.385
1580,475.385
1580,475.385
1580,475.385
1590,475.426
1590,475.426
1590,475.426
1590,475.426
1590,475.426
1600,475.466
1600,475.466
1600,475.466
1600,475.466
1600,475.466
1610,475.503
1610,475.503
1610,475.503
1610,475.503
1610,475.503
1620,475.539
1620,475.539
1620,475.539
1620,475.539
1620,475.539
1630,475.573
1630,475.573
1630,475.573
1630,475.573
1630,475.573
1640,475.605
1640,475.605
1640,475.605
1640,475.605
1640,475.605
1650,475.636
1650,475.636
1650,475.636
1650,475.636
1650,475.636
1660,475.666
1660,475.666
1660,475.666
1660,475.666
1660,475.666
1670,475.694
1670,475.694
1670,475.694
1670,475.694
1670,475.694
1680,475.721
1680,475.721
1680,475.721
1680,475.721
1680,475.721
1690,475.747
1690,475.747
1690,475.747
1690,475.747
1690,475.747
1700,475.771
1700,475.771
1700,475.771
1700,475.771
1700,475.771
1710,475.795
1710,475.795
1710,475.795
1710,475.795
1710,475.795
1720,475.817
1720,475.817
1720,475.817
1720,475.817
1720,475.817
1730,475.838
1730,475.838
1730,475.838
1730,475.838
1730,475.838
1740,475.858
1740,475.858
1740,475.858
1740,475.858
1740,475.858
1750,475.878
1750,475.878
1750,475.878
1750,475.878
1750,475.878
1760,475.896
1760,475.896
1760,475.896
1760,475.896
1760,475.896
1770,475.914
1770,475.914
1770,475.914
1770,475.914
1770,475.914
1780,475.931
1780,475.931
1780,475.931
1780,475.931
1780,475.931
1790,475.947
1790,475.947
1790,475.947
1790,475.947
1790,475.947
1800,475.962
1800,475.962
1800,475.962