File: results/E_Glass/1Mass_DSC_BT/E_Glass_linear_dsc_M_BT_progressMonitor.csv
Loop,Time,r0-A,p0-C0,p1-C0,p0-Cpa,p1-Cpa,p0-Cpb,p1-Cpb,r0-E,r0-Hp,p0-K,p1-K,Value,r0-Xi,p0-eps,p1-eps,p0-ka,p1-ka,p0-kb,p1-kb,r0-n,r0-nO2,p0-rho,p1-rho,
-1,0,4.11e+12,1.0,0.0,1090.65,4155.73,0.0445593,0.427748,1.78e+05,51145.9,14133.7,100000000.0,0.00170291,0.733809,0.88122,0.94,0.292494,0.158737,0.000152352,0.000184622,2.4102,0.0,1683.0,1235.0,
0,166.4953,3.05e+12,1.0,0.0,1068.25,1324.34,0.0431439,0.706521,1.58e+05,114780,13891.1,100000000.0,0.00148086,0.733809,0.826443,0.94,0.329158,0.231948,4.84745e-05,0.000594691,3.19503,0.0,1683.0,1235.0,
1,328.9684,1.82e+12,1.0,0.0,1076.57,1955.81,0.0428959,0.523906,1.69e+05,99145.1,21022.8,100000000.0,0.000827935,0.733809,0.744184,0.94,0.481651,0.068637,5.43985e-05,0.000672615,3.07943,0.0,1683.0,1235.0,
2,509.0024,2.01e+12,1.0,0.0,1093.51,1183.79,0.0428559,0.52963,1.74e+05,133093,18621.1,100000000.0,0.000713393,0.733809,0.869551,0.94,0.530417,0.0684122,6.1221e-05,0.000784369,2.4246,0.0,1683.0,1235.0,
3,693.6496,3.29e+12,1.0,0.0,1097.26,1899.1,0.0431183,0.503185,1.72e+05,100965,15998.9,100000000.0,0.000617367,0.733809,0.787864,0.94,0.460159,0.0815256,8.87542e-05,0.000610337,2.48605,0.0,1683.0,1235.0,
4,876.3286,3.39e+12,1.0,0.0,1088.44,1920.49,0.0435307,0.523407,1.76e+05,89225.4,15738.1,100000000.0,0.000438444,0.733809,0.758343,0.94,0.533848,0.0905039,7.28427e-05,0.000672837,1.90977,0.0,1683.0,1235.0,
5,1072.79,4.00e+12,1.0,0.0,1109.52,1577.93,0.043349,0.532564,1.79e+05,117399,16896.1,100000000.0,0.000379695,0.733809,0.800468,0.94,0.531401,0.074507,7.97273e-05,0.000694393,1.90177,0.0,1683.0,1235.0,
6,1260.4,3.90e+12,1.0,0.0,1092.17,1458.13,0.0438312,0.569967,1.78e+05,109119,14861.1,100000000.0,0.000323127,0.733809,0.800966,0.94,0.482483,0.0899263,7.26168e-05,0.000677271,1.88555,0.0,1683.0,1235.0,
7,1452.51,4.69e+12,1.0,0.0,1075.82,1377.32,0.0441401,0.50371,1.81e+05,110502,14717.5,100000000.0,0.000262687,0.733809,0.812795,0.94,0.430588,0.115125,7.81579e-05,0.000634488,1.40841,0.0,1683.0,1235.0,
8,1655.88,5.42e+12,1.0,0.0,1068.86,1096.57,0.0443546,0.567615,1.83e+05,126975,12224.2,100000000.0,0.000206365,0.733809,0.836294,0.94,0.378775,0.0992396,7.57242e-05,0.000667599,1.16038,0.0,1683.0,1235.0,
9,1842.46,5.26e+12,1.0,0.0,1065.67,1179.88,0.044163,0.591048,1.82e+05,128327,13142,100000000.0,0.000176788,0.733809,0.847646,0.94,0.367111,0.0970914,7.79634e-05,0.000687305,1.4782,0.0,1683.0,1235.0,
10,2027.87,5.98e+12,1.0,0.0,1037.41,1246.67,0.0449377,0.564808,1.84e+05,125929,13652,100000000.0,0.000119293,0.733809,0.861331,0.94,0.321692,0.12043,6.96527e-05,0.000584823,1.21322,0.0,1683.0,1235.0,
11,2212.96,7.64e+12,1.0,0.0,1003.35,1214.83,0.0454301,0.614096,1.86e+05,122692,14238.9,100000000.0,9.51605e-05,0.733809,0.867431,0.94,0.294646,0.156397,6.60219e-05,0.000494965,1.11928,0.0,1683.0,1235.0,
12,2390.32,7.93e+12,1.0,0.0,993.578,1103.44,0.0455414,0.644945,1.87e+05,128718,13856.9,100000000.0,6.66298e-05,0.733809,0.89879,0.94,0.262586,0.148723,7.03139e-05,0.000521774,1.06146,0.0,1683.0,1235.0,
13,2571.83,7.51e+12,1.0,0.0,1000.78,1097.39,0.045506,0.61261,1.87e+05,127704,13226,100000000.0,6.60317e-05,0.733809,0.894535,0.94,0.262908,0.144445,7.27744e-05,0.000523414,1.02603,0.0,1683.0,1235.0,
14,2753.55,8.44e+12,1.0,0.0,983.405,1054.75,0.0458196,0.645405,1.88e+05,126952,14536,100000000.0,4.44386e-05,0.733809,0.885759,0.94,0.268554,0.162501,6.45042e-05,0.000466125,1.04647,0.0,1683.0,1235.0,
15,2927.67,8.44e+12,1.0,0.0,983.405,1054.75,0.0458196,0.645405,1.88e+05,126952,14536,100000000.0,4.44386e-05,0.733809,0.885759,0.94,0.268554,0.162501,6.45042e-05,0.000466125,1.04647,0.0,1683.0,1235.0,
16,3100.43,8.40e+12,1.0,0.0,982.056,1036.35,0.0459011,0.648755,1.88e+05,127858,14225.8,100000000.0,4.24844e-05,0.733809,0.891563,0.94,0.259459,0.159418,6.81754e-05,0.000470983,0.976456,0.0,1683.0,1235.0,
17,3278.8,8.42e+12,1.0,0.0,981.233,1057.09,0.0459188,0.644485,1.88e+05,125870,14641.1,100000000.0,4.11459e-05,0.733809,0.885302,0.94,0.265913,0.162505,6.5718e-05,0.000452496,1.00302,0.0,1683.0,1235.0,
18,3448.59,8.77e+12,1.0,0.0,974.728,1026.3,0.0460559,0.652501,1.88e+05,125060,14868.4,100000000.0,3.84351e-05,0.733809,0.884286,0.94,0.261526,0.170332,6.39661e-05,0.00042819,0.995489,0.0,1683.0,1235.0,
19,3629.45,8.71e+12,1.0,0.0,974.741,1030.94,0.0460911,0.645919,1.88e+05,123862,14951,100000000.0,3.77767e-05,0.733809,0.880602,0.94,0.26363,0.171001,6.35453e-05,0.000418901,0.998997,0.0,1683.0,1235.0,
20,3793.79,8.84e+12,1.0,0.0,972.028,1022.22,0.0461388,0.649522,1.88e+05,123596,15109.6,100000000.0,3.68361e-05,0.733809,0.880315,0.94,0.262496,0.173642,6.27374e-05,0.000407882,1.0031,0.0,1683.0,1235.0,
21,3959.69,8.79e+12,1.0,0.0,972.731,1016.57,0.0461484,0.649616,1.88e+05,123094,15221,100000000.0,3.64287e-05,0.733809,0.878436,0.94,0.264186,0.171377,6.29986e-05,0.000404094,0.996196,0.0,1683.0,1235.0,
22,4113.79,8.82e+12,1.0,0.0,972.195,1012.17,0.0461501,0.650825,1.88e+05,123100,15242.3,100000000.0,3.59357e-05,0.733809,0.87873,0.94,0.262642,0.170292,6.42555e-05,0.000402244,0.988449,0.0,1683.0,1235.0,
23,4286.06,8.76e+12,1.0,0.0,972.354,1013.46,0.0461575,0.647836,1.88e+05,123358,15110.8,100000000.0,3.58819e-05,0.733809,0.879704,0.94,0.262283,0.17115,6.37817e-05,0.000403389,0.993623,0.0,1683.0,1235.0,
24,4426.26,8.81e+12,1.0,0.0,972.14,1007.59,0.0461576,0.651499,1.88e+05,123161,15221.3,100000000.0,3.57536e-05,0.733809,0.879364,0.94,0.261999,0.169773,6.43971e-05,0.000402017,0.985006,0.0,1683.0,1235.0,
25,4610.64,8.79e+12,1.0,0.0,972.028,1005.03,0.0460645,0.653106,1.88e+05,122849,15391.3,100000000.0,3.53545e-05,0.733809,0.879367,0.94,0.262089,0.166222,6.44129e-05,0.00040304,0.983898,0.0,1683.0,1235.0,
26,4763.03,8.70e+12,1.0,0.0,972.492,993.307,0.0458819,0.652596,1.88e+05,122144,15687.6,100000000.0,3.42729e-05,0.733809,0.878843,0.94,0.262757,0.158663,6.41468e-05,0.000404463,0.988768,0.0,1683.0,1235.0,
27,4910.74,8.41e+12,1.0,0.0,972.938,958.803,0.0450792,0.653313,1.88e+05,119294,17079,100000000.0,3.03393e-05,0.733809,0.877998,0.94,0.264114,0.128291,6.36606e-05,0.000412549,1.0026,0.0,1683.0,1235.0,
28,5048.31,8.03e+12,1.0,0.0,973.93,932.87,0.0443889,0.644556,1.87e+05,116097,18186,100000000.0,2.86621e-05,0.733809,0.875137,0.94,0.266839,0.100822,6.37523e-05,0.000412572,1.02856,0.0,1683.0,1235.0,
29,5207.02,8.00e+12,1.0,0.0,973.723,934.675,0.0443841,0.642603,1.87e+05,115701,18250,100000000.0,2.82839e-05,0.733809,0.874196,0.94,0.267517,0.101182,6.2997e-05,0.000409693,1.03606,0.0,1683.0,1235.0,
30,5365.16,8.05e+12,1.0,0.0,973.661,910.997,0.0441611,0.659042,1.87e+05,114672,18821.2,100000000.0,2.63145e-05,0.733809,0.873395,0.94,0.266559,0.0883062,6.4664e-05,0.000415589,1.0237,0.0,1683.0,1235.0,
31,5531.36,7.94e+12,1.0,0.0,974.362,878.342,0.0434989,0.680779,1.87e+05,111931,19850.9,100000000.0,2.33008e-05,0.733809,0.872226,0.94,0.266218,0.0579613,6.64512e-05,0.000435722,1.02101,0.0,1683.0,1235.0,
32,5732.93,7.80e+12,1.0,0.0,974.827,856.05,0.0430131,0.688327,1.87e+05,110435,20535,100000000.0,2.21118e-05,0.733809,0.873025,0.94,0.265817,0.0377455,6.71219e-05,0.000448575,1.01131,0.0,1683.0,1235.0,
33,5905.95,7.81e+12,1.0,0.0,975.669,831.417,0.0425235,0.701517,1.87e+05,109318,21932.7,100000000.0,2.08346e-05,0.733809,0.873336,0.94,0.26755,0.0242777,6.40444e-05,0.000457825,1.01521,0.0,1683.0,1235.0,
34,6072.82,7.70e+12,1.0,0.0,975.956,832.658,0.0425018,0.694077,1.87e+05,109789,21752.5,100000000.0,1.98573e-05,0.733809,0.875477,0.94,0.267267,0.0243561,6.33192e-05,0.000459684,1.00921,0.0,1683.0,1235.0,
35,6233.96,7.70e+12,1.0,0.0,976.223,830.822,0.0424321,0.693043,1.87e+05,109915,21949.8,100000000.0,1.92119e-05,0.733809,0.876031,0.94,0.267819,0.0244775,6.2038e-05,0.000460729,1.01269,0.0,1683.0,1235.0,
36,6383.15,7.75e+12,1.0,0.0,975.912,833.537,0.0425755,0.691072,1.87e+05,109940,21819,100000000.0,1.91785e-05,0.733809,0.874183,0.94,0.268446,0.029354,6.21952e-05,0.00045315,1.01607,0.0,1683.0,1235.0,
37,6536.3,7.76e+12,1.0,0.0,975.851,830.337,0.0424862,0.694091,1.87e+05,109747,22013.1,100000000.0,1.85895e-05,0.733809,0.874006,0.94,0.26881,0.0271243,6.15543e-05,0.000455942,1.01515,0.0,1683.0,1235.0,
38,6684.16,7.81e+12,1.0,0.0,976.031,820.914,0.0423672,0.699172,1.87e+05,109424,22477.4,100000000.0,1.81565e-05,0.733809,0.873348,0.94,0.26973,0.0245881,6.03158e-05,0.000456603,1.01531,0.0,1683.0,1235.0,
39,6824.32,7.80e+12,1.0,0.0,972.909,820.134,0.0424175,0.688585,1.87e+05,107508,21886,100000000.0,1.7276e-05,0.733809,0.870232,0.94,0.26788,0.0265913,6.2129e-05,0.000439724,1.02136,0.0,1683.0,1235.0,
40,6968.12,7.76e+12,1.0,0.0,976.079,816.36,0.0421531,0.692255,1.87e+05,108353,23304.4,100000000.0,1.69936e-05,0.733809,0.872746,0.94,0.272233,0.0251427,5.60562e-05,0.000446958,1.02656,0.0,1683.0,1235.0,
41,7112.6,7.74e+12,1.0,0.0,974.751,813.692,0.0420642,0.683872,1.87e+05,107014,23476.4,100000000.0,1.55095e-05,0.733809,0.871699,0.94,0.272538,0.0269117,5.42686e-05,0.000434885,1.0282,0.0,1683.0,1235.0,
42,7274.79,7.64e+12,1.0,0.0,975.187,807.001,0.0417069,0.672796,1.87e+05,105178,24888.6,100000000.0,1.50377e-05,0.733809,0.871868,0.94,0.276283,0.0273626,4.70912e-05,0.00041915,1.03925,0.0,1683.0,1235.0,
43,7448.48,7.74e+12,1.0,0.0,974.144,802.589,0.0417789,0.679543,1.87e+05,105164,24564.9,100000000.0,1.45412e-05,0.733809,0.870242,0.94,0.275066,0.0265875,4.93586e-05,0.000421055,1.03692,0.0,1683.0,1235.0,
44,7602.97,7.74e+12,1.0,0.0,973.378,793.558,0.0416023,0.675567,1.87e+05,103862,25165.1,100000000.0,1.42009e-05,0.733809,0.869278,0.94,0.276286,0.0260052,4.66541e-05,0.000410943,1.04006,0.0,1683.0,1235.0,
45,7778.1,7.77e+12,1.0,0.0,973.244,785.765,0.0414383,0.677854,1.87e+05,103125,25838.2,100000000.0,1.36081e-05,0.733809,0.869407,0.94,0.277017,0.0248058,4.44276e-05,0.000406543,1.04302,0.0,1683.0,1235.0,
46,7955.86,7.97e+12,1.0,0.0,972.441,755.695,0.0410186,0.68827,1.88e+05,101314,27905.2,100000000.0,1.1742e-05,0.733809,0.868459,0.94,0.279921,0.0241081,3.75199e-05,0.0003911,1.04511,0.0,1683.0,1235.0,
47,8122.16,8.11e+12,1.0,0.0,972.355,736.205,0.0407878,0.694274,1.88e+05,100684,29375.3,100000000.0,1.01962e-05,0.733809,0.869029,0.94,0.282025,0.0260211,3.24912e-05,0.000379611,1.04324,0.0,1683.0,1235.0,
48,8282.55,8.14e+12,1.0,0.0,972.162,731.332,0.0407322,0.696535,1.88e+05,100536,29631.2,100000000.0,9.92475e-06,0.733809,0.86948,0.94,0.281893,0.0255176,3.19526e-05,0.000378315,1.04268,0.0,1683.0,1235.0,
49,8448.83,8.21e+12,1.0,0.0,972.144,724.194,0.0406818,0.703191,1.88e+05,100547,29925.8,100000000.0,9.30222e-06,0.733809,0.869407,0.94,0.281962,0.0241077,3.16222e-05,0.000379825,1.04052,0.0,1683.0,1235.0,
50,8623.44,8.22e+12,1.0,0.0,972.086,726.983,0.0407543,0.705001,1.88e+05,100863,29620.9,100000000.0,8.98124e-06,0.733809,0.869555,0.94,0.281044,0.0239786,3.31568e-05,0.000382878,1.03834,0.0,1683.0,1235.0,
51,8783.49,8.06e+12,1.0,0.0,972.616,742.641,0.040928,0.695073,1.88e+05,101215,28675.4,100000000.0,8.50432e-06,0.733809,0.870082,0.94,0.279912,0.0248371,3.55891e-05,0.000385671,1.03317,0.0,1683.0,1235.0,
52,8962.94,8.05e+12,1.0,0.0,972.798,738.789,0.0409174,0.695617,1.88e+05,100968,28713.1,100000000.0,7.37544e-06,0.733809,0.870499,0.94,0.27975,0.0244018,3.53949e-05,0.000384,1.02428,0.0,1683.0,1235.0,
53,9139.88,8.11e+12,1.0,0.0,972.334,727.744,0.0408358,0.699702,1.88e+05,100498,29192.8,100000000.0,6.89807e-06,0.733809,0.871237,0.94,0.279557,0.0244377,3.41543e-05,0.000378703,1.01574,0.0,1683.0,1235.0,
54,9319.88,8.25e+12,1.0,0.0,972.298,715.193,0.0406941,0.707924,1.88e+05,100051,30085.8,100000000.0,6.67622e-06,0.733809,0.870224,0.94,0.281279,0.0248427,3.15408e-05,0.000374206,1.01915,0.0,1683.0,1235.0,
55,9498.95,8.24e+12,1.0,0.0,972.413,716.104,0.0406964,0.70769,1.88e+05,100160,30051.4,100000000.0,6.58433e-06,0.733809,0.870603,0.94,0.281085,0.0248319,3.15817e-05,0.000375217,1.02046,0.0,1683.0,1235.0,
56,9675.44,8.15e+12,1.0,0.0,972.588,723.479,0.0407706,0.703085,1.88e+05,100349,29555.4,100000000.0,6.50853e-06,0.733809,0.871208,0.94,0.28018,0.0243314,3.28881e-05,0.000377949,1.01505,0.0,1683.0,1235.0,
57,9843.57,8.20e+12,1.0,0.0,972.52,717.851,0.040696,0.705584,1.88e+05,100077,29941.3,100000000.0,6.47096e-06,0.733809,0.870942,0.94,0.280862,0.024411,3.15726e-05,0.000375631,1.01669,0.0,1683.0,1235.0,
58,10018.9,8.16e+12,1.0,0.0,972.684,721.257,0.0407032,0.702616,1.88e+05,100122,29835.1,100000000.0,6.41634e-06,0.733809,0.871184,0.94,0.28087,0.0244293,3.14728e-05,0.000376259,1.01681,0.0,1683.0,1235.0,
59,10192.1,8.09e+12,1.0,0.0,972.969,726.519,0.0407181,0.697866,1.88e+05,100172,29667.6,100000000.0,6.40808e-06,0.733809,0.871606,0.94,0.280895,0.0246685,3.13498e-05,0.000376804,1.0177,0.0,1683.0,1235.0,
60,10360.2,8.09e+12,1.0,0.0,972.967,725.394,0.0407044,0.697883,1.88e+05,100125,29745.3,100000000.0,6.38754e-06,0.733809,0.871728,0.94,0.280977,0.0247433,3.10492e-05,0.000376013,1.01676,0.0,1683.0,1235.0,
61,10528.7,8.10e+12,1.0,0.0,973.016,724.948,0.0407028,0.698485,1.88e+05,100136,29780,100000000.0,6.38186e-06,0.733809,0.871749,0.94,0.281027,0.0248355,3.09796e-05,0.00037597,1.01638,0.0,1683.0,1235.0,
62,10705,8.08e+12,1.0,0.0,973.136,726.126,0.0406957,0.69686,1.88e+05,100103,29783.3,100000000.0,6.3725e-06,0.733809,0.871817,0.94,0.28123,0.0249376,3.06518e-05,0.000375686,1.01675,0.0,1683.0,1235.0,
63,10900.5,8.10e+12,1.0,0.0,973.046,724.268,0.0406899,0.698112,1.88e+05,100026,29836,100000000.0,6.36441e-06,0.733809,0.871721,0.94,0.281238,0.0249158,3.06033e-05,0.000375056,1.01534,0.0,1683.0,1235.0,
64,11084.7,8.08e+12,1.0,0.0,973.251,725.636,0.0406904,0.696502,1.88e+05,100021,29882.9,100000000.0,6.3559e-06,0.733809,0.871936,0.94,0.2815,0.0258169,3.01194e-05,0.000373835,1.01498,0.0,1683.0,1235.0,
65,11244.3,8.05e+12,1.0,0.0,973.345,726.979,0.040686,0.694639,1.88e+05,99935.5,29826.5,100000000.0,6.34705e-06,0.733809,0.871921,0.94,0.281647,0.0255428,2.99328e-05,0.000373879,1.01414,0.0,1683.0,1235.0,
66,11405.6,8.04e+12,1.0,0.0,973.468,728.004,0.0406912,0.693978,1.88e+05,100033,29804.4,100000000.0,6.33453e-06,0.733809,0.872029,0.94,0.281685,0.0256402,2.99698e-05,0.000374364,1.01493,0.0,1683.0,1235.0,
67,11595.2,7.99e+12,1.0,0.0,973.726,730.688,0.040686,0.690709,1.88e+05,100041,29703.6,100000000.0,6.31182e-06,0.733809,0.87226,0.94,0.281843,0.0251826,2.97477e-05,0.000375277,1.0146,0.0,1683.0,1235.0,
68,11770.4,7.93e+12,1.0,0.0,974.118,734.087,0.0406874,0.687118,1.88e+05,100082,29617.2,100000000.0,6.2943e-06,0.733809,0.872463,0.94,0.282178,0.0251753,2.94283e-05,0.000375849,1.01457,0.0,1683.0,1235.0,
69,11958.5,7.86e+12,1.0,0.0,974.384,737.324,0.040683,0.683556,1.88e+05,100124,29455.1,100000000.0,6.26971e-06,0.733809,0.872801,0.94,0.282174,0.0241864,2.93943e-05,0.000377811,1.01366,0.0,1683.0,1235.0,
70,12133.3,7.77e+12,1.0,0.0,975.003,743.454,0.0406868,0.677306,1.88e+05,100189,29325.2,100000000.0,6.25125e-06,0.733809,0.873367,0.94,0.282609,0.0244891,2.87345e-05,0.000378341,1.01268,0.0,1683.0,1235.0,
71,12317.1,7.69e+12,1.0,0.0,975.452,747.419,0.0406826,0.67255,1.87e+05,100185,29200.1,100000000.0,6.21869e-06,0.733809,0.873702,0.94,0.28297,0.0241172,2.8245e-05,0.000379182,1.01088,0.0,1683.0,1235.0,
72,12501.8,7.61e+12,1.0,0.0,975.883,752.245,0.040685,0.667681,1.87e+05,100255,29049.6,100000000.0,6.21283e-06,0.733809,0.874132,0.94,0.28319,0.0238255,2.79194e-05,0.000380473,1.01011,0.0,1683.0,1235.0,
73,12681,7.50e+12,1.0,0.0,976.627,757.983,0.0406856,0.661173,1.87e+05,100299,28930.2,100000000.0,6.19206e-06,0.733809,0.874711,0.94,0.28382,0.0239467,2.70491e-05,0.000380926,1.00679,0.0,1683.0,1235.0,
74,12873.5,7.57e+12,1.0,0.0,976.203,753.444,0.040684,0.665959,1.87e+05,100258,29027.3,100000000.0,6.18664e-06,0.733809,0.874297,0.94,0.283495,0.0237549,2.75853e-05,0.000380573,1.00773,0.0,1683.0,1235.0,
75,13049.1,7.57e+12,1.0,0.0,976.203,753.444,0.040684,0.665959,1.87e+05,100258,29027.3,100000000.0,6.18664e-06,0.733809,0.874297,0.94,0.283495,0.0237549,2.75853e-05,0.000380573,1.00773,0.0,1683.0,1235.0,
76,13235.2,7.54e+12,1.0,0.0,976.41,755.452,0.0406838,0.66361,1.87e+05,100278,28972.6,100000000.0,6.18329e-06,0.733809,0.874486,0.94,0.283649,0.0237252,2.73704e-05,0.000380847,1.00733,0.0,1683.0,1235.0,
77,13429.8,7.54e+12,1.0,0.0,976.41,755.452,0.0406838,0.66361,1.87e+05,100278,28972.6,100000000.0,6.18329e-06,0.733809,0.874486,0.94,0.283649,0.0237252,2.73704e-05,0.000380847,1.00733,0.0,1683.0,1235.0,
78,13629.7,7.53e+12,1.0,0.0,976.426,755.616,0.0406844,0.663302,1.87e+05,100268,28962.7,100000000.0,6.18237e-06,0.733809,0.87449,0.94,0.283671,0.023734,2.73595e-05,0.000380773,1.00721,0.0,1683.0,1235.0,
79,13814.3,7.51e+12,1.0,0.0,976.528,756.794,0.0406852,0.66211,1.87e+05,100279,28930.7,100000000.0,6.18179e-06,0.733809,0.874589,0.94,0.283739,0.0237332,2.72413e-05,0.000380963,1.00691,0.0,1683.0,1235.0,
80,14010.2,7.51e+12,1.0,0.0,976.513,756.855,0.0406866,0.662073,1.87e+05,100279,28921.8,100000000.0,6.18036e-06,0.733809,0.874582,0.94,0.28371,0.0237315,2.72899e-05,0.00038097,1.00706,0.0,1683.0,1235.0,
81,14191.7,7.50e+12,1.0,0.0,976.57,757.899,0.0406898,0.661049,1.87e+05,100292,28881.6,100000000.0,6.17917e-06,0.733809,0.874661,0.94,0.283722,0.0237526,2.72552e-05,0.000381129,1.00691,0.0,1683.0,1235.0,
82,14384.5,7.49e+12,1.0,0.0,976.552,758.386,0.040694,0.660725,1.87e+05,100311,28850.7,100000000.0,6.17728e-06,0.733809,0.874685,0.94,0.283658,0.023737,2.73279e-05,0.000381312,1.00694,0.0,1683.0,1235.0,
83,14566.4,7.50e+12,1.0,0.0,976.442,757.9,0.0406989,0.66142,1.87e+05,100323,28837.9,100000000.0,6.1761e-06,0.733809,0.874631,0.94,0.283513,0.0237376,2.75225e-05,0.000381378,1.00715,0.0,1683.0,1235.0,
84,14758.3,7.50e+12,1.0,0.0,976.475,758.451,0.0407014,0.660809,1.87e+05,100333,28810.3,100000000.0,6.1749e-06,0.733809,0.874671,0.94,0.283515,0.0237293,2.75323e-05,0.000381479,1.0071,0.0,1683.0,1235.0,
85,14945.3,7.51e+12,1.0,0.0,976.366,757.497,0.0407017,0.661786,1.87e+05,100319,28832,100000000.0,6.174e-06,0.733809,0.874572,0.94,0.283438,0.0237357,2.76559e-05,0.000381272,1.00745,0.0,1683.0,1235.0,
86,15134.8,7.53e+12,1.0,0.0,976.192,756.195,0.0407053,0.663138,1.87e+05,100306,28842.2,100000000.0,6.17289e-06,0.733809,0.874439,0.94,0.283274,0.0237253,2.79071e-05,0.000381061,1.00775,0.0,1683.0,1235.0,
87,15325.4,7.52e+12,1.0,0.0,976.307,757.09,0.0407032,0.662128,1.87e+05,100306,28832,100000000.0,6.17232e-06,0.733809,0.874525,0.94,0.283385,0.0237305,2.77402e-05,0.000381118,1.00744,0.0,1683.0,1235.0,
88,15508,7.52e+12,1.0,0.0,976.278,757.187,0.0407065,0.66204,1.87e+05,100310,28812.4,100000000.0,6.1719e-06,0.733809,0.874518,0.94,0.283335,0.0237289,2.7818e-05,0.000381146,1.00748,0.0,1683.0,1235.0,
89,15683.6,7.51e+12,1.0,0.0,976.317,757.196,0.0407047,0.661913,1.87e+05,100301,28820.2,100000000.0,6.17092e-06,0.733809,0.874532,0.94,0.283389,0.023728,2.77483e-05,0.000381076,1.00721,0.0,1683.0,1235.0,
90,15846.2,7.50e+12,1.0,0.0,976.38,758.129,0.0407089,0.660898,1.87e+05,100308,28775.9,100000000.0,6.16921e-06,0.733809,0.874621,0.94,0.283389,0.023727,2.77273e-05,0.000381182,1.00666,0.0,1683.0,1235.0,
91,16018,7.48e+12,1.0,0.0,976.486,759.021,0.0407095,0.659871,1.87e+05,100312,28750.4,100000000.0,6.16895e-06,0.733809,0.874716,0.94,0.283464,0.0237269,2.76139e-05,0.000381276,1.00611,0.0,1683.0,1235.0,
92,16189.5,7.49e+12,1.0,0.0,976.391,758.471,0.0407116,0.660609,1.87e+05,100318,28754.9,100000000.0,6.16849e-06,0.733809,0.874649,0.94,0.283369,0.0237261,2.77461e-05,0.000381286,1.00645,0.0,1683.0,1235.0,
93,16363,7.49e+12,1.0,0.0,976.394,758.325,0.0407108,0.660704,1.87e+05,100314,28761.4,100000000.0,6.16842e-06,0.733809,0.874648,0.94,0.283377,0.0237251,2.77376e-05,0.000381247,1.0064,0.0,1683.0,1235.0,
94,16528.5,7.49e+12,1.0,0.0,976.401,758.632,0.0407129,0.660368,1.87e+05,100316,28742.9,100000000.0,6.16824e-06,0.733809,0.874663,0.94,0.283368,0.023725,2.77534e-05,0.000381268,1.00629,0.0,1683.0,1235.0,
95,16695.5,7.49e+12,1.0,0.0,976.401,758.632,0.0407129,0.660368,1.87e+05,100316,28742.9,100000000.0,6.16824e-06,0.733809,0.874663,0.94,0.283368,0.023725,2.77534e-05,0.000381268,1.00629,0.0,1683.0,1235.0,
96,16861.2,7.47e+12,1.0,0.0,976.393,759.379,0.0407225,0.659678,1.87e+05,100337,28678.1,100000000.0,6.16749e-06,0.733809,0.87469,0.94,0.283282,0.0237253,2.78982e-05,0.000381437,1.00602,0.0,1683.0,1235.0,
97,17034.5,7.48e+12,1.0,0.0,976.376,759.362,0.0407241,0.659733,1.87e+05,100340,28671.4,100000000.0,6.16709e-06,0.733809,0.874673,0.94,0.28326,0.0237255,2.79437e-05,0.000381452,1.00611,0.0,1683.0,1235.0,
98,17201.2,7.47e+12,1.0,0.0,976.375,759.454,0.0407255,0.659658,1.87e+05,100344,28662.7,100000000.0,6.16679e-06,0.733809,0.874673,0.94,0.283249,0.0237257,2.79692e-05,0.000381485,1.00613,0.0,1683.0,1235.0,
99,17372,7.48e+12,1.0,0.0,976.357,759.434,0.0407283,0.659757,1.87e+05,100355,28651.3,100000000.0,6.16546e-06,0.733809,0.874649,0.94,0.283218,0.0237257,2.80442e-05,0.000381551,1.00628,0.0,1683.0,1235.0,
100,17540.4,7.48e+12,1.0,0.0,976.317,758.998,0.0407298,0.660358,1.87e+05,100369,28658.5,100000000.0,6.16417e-06,0.733809,0.874585,0.94,0.283184,0.0237262,2.81426e-05,0.000381618,1.00672,0.0,1683.0,1235.0,
101,17707.7,7.48e+12,1.0,0.0,976.305,759.484,0.0407393,0.659984,1.87e+05,100396,28603.1,100000000.0,6.16369e-06,0.733809,0.87458,0.94,0.283106,0.0237264,2.8314e-05,0.000381804,1.00665,0.0,1683.0,1235.0,
102,17880.2,2.58e+12,1.0,0.0,1006,1203.3,0.0407095,0.0747064,1.82e+05,104902,17416.7,100000000.0,6.12552e-06,0.733809,0.895355,0.94,0.289314,0.228218,3.40824e-05,0.000122578,0.972809,0.0,1683.0,1235.0,
103,18054.1,2.58e+12,1.0,0.0,1006,1203.3,0.0407095,0.0747064,1.82e+05,104902,17416.7,100000000.0,6.12552e-06,0.733809,0.895355,0.94,0.289314,0.228218,3.40824e-05,0.000122578,0.972809,0.0,1683.0,1235.0,
104,18242.6,2.58e+12,1.0,0.0,1006,1203.3,0.0407095,0.0747064,1.82e+05,104902,17416.7,100000000.0,6.12552e-06,0.733809,0.895355,0.94,0.289314,0.228218,3.40824e-05,0.000122578,0.972809,0.0,1683.0,1235.0,
105,18415.3,2.58e+12,1.0,0.0,1006,1203.3,0.0407095,0.0747064,1.82e+05,104902,17416.7,100000000.0,6.12552e-06,0.733809,0.895355,0.94,0.289314,0.228218,3.40824e-05,0.000122578,0.972809,0.0,1683.0,1235.0,
106,18577.9,2.58e+12,1.0,0.0,1006,1203.3,0.0407095,0.0747064,1.82e+05,104902,17416.7,100000000.0,6.12552e-06,0.733809,0.895355,0.94,0.289314,0.228218,3.40824e-05,0.000122578,0.972809,0.0,1683.0,1235.0,
107,18760.6,2.58e+12,1.0,0.0,1006,1203.3,0.0407095,0.0747064,1.82e+05,104902,17416.7,100000000.0,6.12552e-06,0.733809,0.895355,0.94,0.289314,0.228218,3.40824e-05,0.000122578,0.972809,0.0,1683.0,1235.0,
108,18945.9,2.58e+12,1.0,0.0,1006,1203.3,0.0407095,0.0747064,1.82e+05,104902,17416.7,100000000.0,6.12552e-06,0.733809,0.895355,0.94,0.289314,0.228218,3.40824e-05,0.000122578,0.972809,0.0,1683.0,1235.0,
109,19126.5,2.58e+12,1.0,0.0,1006,1203.3,0.0407095,0.0747064,1.82e+05,104902,17416.7,100000000.0,6.12552e-06,0.733809,0.895355,0.94,0.289314,0.228218,3.40824e-05,0.000122578,0.972809,0.0,1683.0,1235.0,
110,19323.8,2.58e+12,1.0,0.0,1006.17,1204.12,0.0406811,0.0753251,1.82e+05,104965,17443,100000000.0,6.02581e-06,0.733809,0.895246,0.94,0.28919,0.226978,3.47057e-05,0.00012529,0.971832,0.0,1683.0,1235.0,
111,19515.3,2.58e+12,1.0,0.0,1006.17,1204.12,0.0406811,0.0753251,1.82e+05,104965,17443,100000000.0,6.02581e-06,0.733809,0.895246,0.94,0.28919,0.226978,3.47057e-05,0.00012529,0.971832,0.0,1683.0,1235.0,
112,19695.5,2.58e+12,1.0,0.0,1005.87,1203.93,0.0406852,0.0751654,1.82e+05,104975,17491.9,100000000.0,6.00914e-06,0.733809,0.894985,0.94,0.288907,0.227426,3.51998e-05,0.000124484,0.973809,0.0,1683.0,1235.0,
113,19880.5,2.57e+12,1.0,0.0,1006.64,1199.87,0.0406899,0.0787107,1.82e+05,104880,17636.7,100000000.0,5.91572e-06,0.733809,0.895891,0.94,0.289477,0.22837,3.42164e-05,0.000122244,0.972116,0.0,1683.0,1235.0,
114,20072.1,2.57e+12,1.0,0.0,1006.99,1197.69,0.0406807,0.0801917,1.82e+05,104775,17706.9,100000000.0,5.80257e-06,0.733809,0.896201,0.94,0.289809,0.228845,3.37029e-05,0.000120695,0.971388,0.0,1683.0,1235.0,
115,20260,2.56e+12,1.0,0.0,1006.91,1195.19,0.0406845,0.0811076,1.82e+05,104674,17801.6,100000000.0,5.70292e-06,0.733809,0.896201,0.94,0.289791,0.229933,3.36907e-05,0.000117899,0.972963,0.0,1683.0,1235.0,
116,20437.4,2.54e+12,1.0,0.0,1007.18,1191.97,0.0406821,0.0820206,1.82e+05,104479,17916.7,100000000.0,5.55865e-06,0.733809,0.896519,0.94,0.290297,0.231633,3.27374e-05,0.000113552,0.973354,0.0,1683.0,1235.0,
117,20611.9,2.53e+12,1.0,0.0,1006.56,1192.28,0.0406807,0.0799416,1.82e+05,104428,17957,100000000.0,5.48132e-06,0.733809,0.895834,0.94,0.289938,0.232752,3.33908e-05,0.000111171,0.976984,0.0,1683.0,1235.0,
118,20767.4,2.52e+12,1.0,0.0,1006.24,1193.71,0.0406819,0.0779018,1.82e+05,104366,17866.4,100000000.0,5.3421e-06,0.733809,0.89508,0.94,0.290106,0.233266,3.33967e-05,0.00011036,0.980195,0.0,1683.0,1235.0,
119,20935.7,2.53e+12,1.0,0.0,1006.27,1193.16,0.0406824,0.0782808,1.82e+05,104332,17865.2,100000000.0,5.29653e-06,0.733809,0.895114,0.94,0.290163,0.233219,3.32639e-05,0.000110095,0.980005,0.0,1683.0,1235.0,
120,21106,2.52e+12,1.0,0.0,1006.64,1190.77,0.0406818,0.0798531,1.82e+05,104193,17914.4,100000000.0,5.21927e-06,0.733809,0.89538,0.94,0.290678,0.233945,3.24614e-05,0.000107995,0.97992,0.0,1683.0,1235.0,
121,21266.9,2.53e+12,1.0,0.0,1007.14,1187.23,0.0406808,0.0810615,1.82e+05,103848,17893,100000000.0,5.0324e-06,0.733809,0.895759,0.94,0.291783,0.234937,3.03865e-05,0.000103813,0.978353,0.0,1683.0,1235.0,
122,21419.3,2.53e+12,1.0,0.0,1007.14,1187.23,0.0406808,0.0810615,1.82e+05,103848,17893,100000000.0,5.0324e-06,0.733809,0.895759,0.94,0.291783,0.234937,3.03865e-05,0.000103813,0.978353,0.0,1683.0,1235.0,
123,21569.9,2.54e+12,1.0,0.0,1007.55,1185.09,0.0406805,0.0825365,1.82e+05,103680,17879.2,100000000.0,5.02564e-06,0.733809,0.896019,0.94,0.292427,0.235192,2.93064e-05,0.000102281,0.977354,0.0,1683.0,1235.0,
124,21735.3,2.53e+12,1.0,0.0,1007.08,1186.26,0.0406807,0.0807203,1.82e+05,103713,17883,100000000.0,5.02043e-06,0.733809,0.895563,0.94,0.29205,0.235627,2.9944e-05,0.000101723,0.979478,0.0,1683.0,1235.0,
125,21901.9,2.53e+12,1.0,0.0,1007.36,1185.25,0.0406803,0.0819416,1.82e+05,103717,17920.5,100000000.0,4.99792e-06,0.733809,0.895978,0.94,0.292147,0.235524,2.96954e-05,0.000101839,0.977823,0.0,1683.0,1235.0,
126,22070.9,2.53e+12,1.0,0.0,1007.32,1185.31,0.0406802,0.0814981,1.82e+05,103671,17888.5,100000000.0,4.98237e-06,0.733809,0.89586,0.94,0.292268,0.235602,2.94896e-05,0.00010141,0.977981,0.0,1683.0,1235.0,
127,22238.3,2.52e+12,1.0,0.0,1006.96,1185.17,0.0406801,0.0807516,1.82e+05,103689,17936.7,100000000.0,4.96326e-06,0.733809,0.8956,0.94,0.291864,0.236092,3.01366e-05,0.000100478,0.97951,0.0,1683.0,1235.0,
128,22400,2.53e+12,1.0,0.0,1007.06,1185.56,0.0406801,0.0807814,1.82e+05,103686,17888.8,100000000.0,4.92665e-06,0.733809,0.895567,0.94,0.292013,0.23575,2.99624e-05,0.000101193,0.979092,0.0,1683.0,1235.0,
129,22569.9,2.53e+12,1.0,0.0,1006.98,1184.44,0.0406802,0.0801981,1.82e+05,103542,17848.7,100000000.0,4.81202e-06,0.733809,0.895225,0.94,0.292285,0.236412,2.95971e-05,9.91443e-05,0.980052,0.0,1683.0,1235.0,
130,22735.4,2.52e+12,1.0,0.0,1006.77,1183.85,0.0406801,0.0793175,1.82e+05,103464,17838.1,100000000.0,4.75311e-06,0.733809,0.894852,0.94,0.2923,0.237096,2.96576e-05,9.74721e-05,0.981456,0.0,1683.0,1235.0,
131,22912.1,2.51e+12,1.0,0.0,1006.52,1182.78,0.0406802,0.0786869,1.81e+05,103394,17863.4,100000000.0,4.70201e-06,0.733809,0.894536,0.94,0.292183,0.237903,2.98863e-05,9.5487e-05,0.982895,0.0,1683.0,1235.0,
132,23089.9,2.50e+12,1.0,0.0,1006.56,1181,0.0406801,0.0793606,1.81e+05,103359,17950.6,100000000.0,4.65382e-06,0.733809,0.894682,0.94,0.292114,0.238643,2.99624e-05,9.38181e-05,0.98301,0.0,1683.0,1235.0,
133,23270.2,2.49e+12,1.0,0.0,1006.63,1179.95,0.0406801,0.0798445,1.81e+05,103350,17986.8,100000000.0,4.58536e-06,0.733809,0.894853,0.94,0.292071,0.238859,2.99678e-05,9.32585e-05,0.982239,0.0,1683.0,1235.0,
134,23454.3,4.12e+12,1.0,0.0,990.228,1084.79,0.0413154,0.20479,1.84e+05,102096,17764.1,100000000.0,4.26708e-06,0.733809,0.883913,0.94,0.28564,0.167352,3.16573e-05,0.000186642,0.996797,0.0,1683.0,1235.0,
135,23644.3,4.12e+12,1.0,0.0,990.228,1084.79,0.0413154,0.20479,1.84e+05,102096,17764.1,100000000.0,4.26708e-06,0.733809,0.883913,0.94,0.28564,0.167352,3.16573e-05,0.000186642,0.996797,0.0,1683.0,1235.0,
136,23836.9,4.12e+12,1.0,0.0,990.228,1084.79,0.0413154,0.20479,1.84e+05,102096,17764.1,100000000.0,4.26708e-06,0.733809,0.883913,0.94,0.28564,0.167352,3.16573e-05,0.000186642,0.996797,0.0,1683.0,1235.0,
137,24031.3,4.12e+12,1.0,0.0,990.228,1084.79,0.0413154,0.20479,1.84e+05,102096,17764.1,100000000.0,4.26708e-06,0.733809,0.883913,0.94,0.28564,0.167352,3.16573e-05,0.000186642,0.996797,0.0,1683.0,1235.0,
138,24220.4,4.12e+12,1.0,0.0,990.228,1084.79,0.0413154,0.20479,1.84e+05,102096,17764.1,100000000.0,4.26708e-06,0.733809,0.883913,0.94,0.28564,0.167352,3.16573e-05,0.000186642,0.996797,0.0,1683.0,1235.0,
139,24410.1,4.12e+12,1.0,0.0,990.228,1084.79,0.0413154,0.20479,1.84e+05,102096,17764.1,100000000.0,4.26708e-06,0.733809,0.883913,0.94,0.28564,0.167352,3.16573e-05,0.000186642,0.996797,0.0,1683.0,1235.0,
140,24597.6,4.12e+12,1.0,0.0,990.228,1084.79,0.0413154,0.20479,1.84e+05,102096,17764.1,100000000.0,4.26708e-06,0.733809,0.883913,0.94,0.28564,0.167352,3.16573e-05,0.000186642,0.996797,0.0,1683.0,1235.0,
141,24809.6,4.12e+12,1.0,0.0,990.228,1084.79,0.0413154,0.20479,1.84e+05,102096,17764.1,100000000.0,4.26708e-06,0.733809,0.883913,0.94,0.28564,0.167352,3.16573e-05,0.000186642,0.996797,0.0,1683.0,1235.0,
142,24995.4,4.12e+12,1.0,0.0,990.228,1084.79,0.0413154,0.20479,1.84e+05,102096,17764.1,100000000.0,4.26708e-06,0.733809,0.883913,0.94,0.28564,0.167352,3.16573e-05,0.000186642,0.996797,0.0,1683.0,1235.0,
143,25184.3,4.12e+12,1.0,0.0,990.228,1084.79,0.0413154,0.20479,1.84e+05,102096,17764.1,100000000.0,4.26708e-06,0.733809,0.883913,0.94,0.28564,0.167352,3.16573e-05,0.000186642,0.996797,0.0,1683.0,1235.0,
144,25362.2,4.12e+12,1.0,0.0,990.228,1084.79,0.0413154,0.20479,1.84e+05,102096,17764.1,100000000.0,4.26708e-06,0.733809,0.883913,0.94,0.28564,0.167352,3.16573e-05,0.000186642,0.996797,0.0,1683.0,1235.0,
145,25545.9,4.12e+12,1.0,0.0,990.228,1084.79,0.0413154,0.20479,1.84e+05,102096,17764.1,100000000.0,4.26708e-06,0.733809,0.883913,0.94,0.28564,0.167352,3.16573e-05,0.000186642,0.996797,0.0,1683.0,1235.0,
146,25726.6,4.12e+12,1.0,0.0,990.228,1084.79,0.0413154,0.20479,1.84e+05,102096,17764.1,100000000.0,4.26708e-06,0.733809,0.883913,0.94,0.28564,0.167352,3.16573e-05,0.000186642,0.996797,0.0,1683.0,1235.0,
147,25915.1,4.12e+12,1.0,0.0,990.228,1084.79,0.0413154,0.20479,1.84e+05,102096,17764.1,100000000.0,4.26708e-06,0.733809,0.883913,0.94,0.28564,0.167352,3.16573e-05,0.000186642,0.996797,0.0,1683.0,1235.0,
148,26107,4.12e+12,1.0,0.0,990.228,1084.79,0.0413154,0.20479,1.84e+05,102096,17764.1,100000000.0,4.26708e-06,0.733809,0.883913,0.94,0.28564,0.167352,3.16573e-05,0.000186642,0.996797,0.0,1683.0,1235.0,
149,26292.5,4.12e+12,1.0,0.0,990.228,1084.79,0.0413154,0.20479,1.84e+05,102096,17764.1,100000000.0,4.26708e-06,0.733809,0.883913,0.94,0.28564,0.167352,3.16573e-05,0.000186642,0.996797,0.0,1683.0,1235.0,
150,26481.7,4.04e+12,1.0,0.0,990.445,1090.09,0.0411011,0.200658,1.84e+05,102162,18748.5,100000000.0,4.13244e-06,0.733809,0.884015,0.94,0.286735,0.168263,2.98075e-05,0.000186287,0.988556,0.0,1683.0,1235.0,
151,26677.9,3.93e+12,1.0,0.0,993.402,1093.61,0.0412065,0.194283,1.84e+05,102365,18232.1,100000000.0,3.90008e-06,0.733809,0.885762,0.94,0.286354,0.172146,3.2899e-05,0.00018168,0.993284,0.0,1683.0,1235.0,
152,26865.6,3.83e+12,1.0,0.0,994.675,1107.05,0.0411408,0.175819,1.84e+05,102396,18455.4,100000000.0,3.734e-06,0.733809,0.886117,0.94,0.287001,0.17976,3.30621e-05,0.00017093,0.99177,0.0,1683.0,1235.0,
153,27053.3,3.85e+12,1.0,0.0,995.628,1111.71,0.0411429,0.169692,1.84e+05,102382,18729.4,100000000.0,3.64119e-06,0.733809,0.886803,0.94,0.287561,0.183861,3.2599e-05,0.000165161,0.988929,0.0,1683.0,1235.0,
154,27246.9,3.79e+12,1.0,0.0,997.582,1118.71,0.0412467,0.152047,1.84e+05,102145,17982.4,100000000.0,3.36131e-06,0.733809,0.887476,0.94,0.287278,0.191706,3.51011e-05,0.000150817,0.992636,0.0,1683.0,1235.0,
155,27414.6,3.83e+12,1.0,0.0,999.816,1128.19,0.0413818,0.138624,1.84e+05,102083,17512.9,100000000.0,3.07942e-06,0.733809,0.888246,0.94,0.287251,0.198523,3.74492e-05,0.000140724,0.996451,0.0,1683.0,1235.0,
156,27586.3,3.75e+12,1.0,0.0,1001.67,1148.31,0.0413334,0.106714,1.84e+05,102127,17707.5,100000000.0,2.83049e-06,0.733809,0.889692,0.94,0.288083,0.212,3.67475e-05,0.00012083,0.995598,0.0,1683.0,1235.0,
157,27764.2,3.69e+12,1.0,0.0,1004.19,1167.91,0.0413062,0.0784682,1.83e+05,102227,17944,100000000.0,2.75052e-06,0.733809,0.891041,0.94,0.289085,0.225515,3.69363e-05,0.000101893,0.994909,0.0,1683.0,1235.0,
158,27938.8,3.64e+12,1.0,0.0,1005.11,1174.63,0.0413273,0.066264,1.83e+05,102173,17800.5,100000000.0,2.74379e-06,0.733809,0.89146,0.94,0.289286,0.230692,3.73325e-05,9.35902e-05,0.996014,0.0,1683.0,1235.0,
159,28109,3.69e+12,1.0,0.0,1003.86,1168.48,0.0413268,0.075148,1.84e+05,102084,17814.5,100000000.0,2.70956e-06,0.733809,0.890905,0.94,0.288956,0.226345,3.67695e-05,9.9382e-05,0.995305,0.0,1683.0,1235.0,
160,28275.9,3.56e+12,1.0,0.0,1005.61,1174.69,0.0412563,0.0703058,1.83e+05,102302,18555.1,100000000.0,2.61094e-06,0.733809,0.892289,0.94,0.290043,0.227921,3.57386e-05,9.92037e-05,0.992838,0.0,1683.0,1235.0,
161,28456.6,3.48e+12,1.0,0.0,1006.76,1170.99,0.0412742,0.0748858,1.83e+05,102207,18812.7,100000000.0,2.51565e-06,0.733809,0.893165,0.94,0.290329,0.225317,3.58781e-05,0.000102303,0.992932,0.0,1683.0,1235.0,
162,28625.9,3.43e+12,1.0,0.0,1008.08,1176.4,0.0412811,0.0683685,1.83e+05,102272,18994.7,100000000.0,2.47984e-06,0.733809,0.894147,0.94,0.29073,0.227994,3.58911e-05,9.91047e-05,0.992657,0.0,1683.0,1235.0,
163,28790.8,3.38e+12,1.0,0.0,1008.98,1180.16,0.0412569,0.0650766,1.83e+05,102382,19421.1,100000000.0,2.42277e-06,0.733809,0.894973,0.94,0.291395,0.229438,3.49778e-05,9.81629e-05,0.992442,0.0,1683.0,1235.0,
164,28951.9,3.36e+12,1.0,0.0,1009.29,1179.27,0.0412634,0.0653636,1.83e+05,102326,19518.5,100000000.0,2.38512e-06,0.733809,0.895186,0.94,0.291603,0.228942,3.47843e-05,9.84042e-05,0.99242,0.0,1683.0,1235.0,
165,29104.6,3.34e+12,1.0,0.0,1009.4,1178.69,0.041266,0.0663913,1.83e+05,102333,19620,100000000.0,2.37067e-06,0.733809,0.895303,0.94,0.29176,0.228016,3.45102e-05,9.99025e-05,0.992087,0.0,1683.0,1235.0,
166,29264.1,3.34e+12,1.0,0.0,1009.62,1178.94,0.0412745,0.0658185,1.83e+05,102333,19587.3,100000000.0,2.33979e-06,0.733809,0.895318,0.94,0.291794,0.228413,3.47264e-05,9.93057e-05,0.992197,0.0,1683.0,1235.0,
167,29438.2,3.28e+12,1.0,0.0,1010.77,1177.95,0.0412752,0.0654562,1.83e+05,102240,19806.7,100000000.0,2.27155e-06,0.733809,0.895899,0.94,0.29226,0.228529,3.47949e-05,9.83616e-05,0.992598,0.0,1683.0,1235.0,
168,29607.5,3.26e+12,1.0,0.0,1011.07,1176.35,0.0412632,0.0671281,1.83e+05,102199,19970.6,100000000.0,2.25316e-06,0.733809,0.896084,0.94,0.292502,0.22762,3.45401e-05,9.9373e-05,0.991971,0.0,1683.0,1235.0,
169,29771.6,3.22e+12,1.0,0.0,1012.24,1175.75,0.0412861,0.0671605,1.83e+05,102146,20138.6,100000000.0,2.18762e-06,0.733809,0.896791,0.94,0.292869,0.227743,3.46948e-05,9.87075e-05,0.99289,0.0,1683.0,1235.0,
170,29936.5,3.18e+12,1.0,0.0,1013.34,1175.91,0.0413199,0.0670527,1.83e+05,102147,20269.6,100000000.0,2.14001e-06,0.733809,0.897472,0.94,0.293222,0.227526,3.48521e-05,9.90791e-05,0.992938,0.0,1683.0,1235.0,
171,30109.1,3.15e+12,1.0,0.0,1014.41,1176.62,0.0413506,0.0663103,1.83e+05,102134,20407.5,100000000.0,2.11825e-06,0.733809,0.898301,0.94,0.293507,0.227699,3.49199e-05,9.87686e-05,0.992388,0.0,1683.0,1235.0,
172,30324.4,3.09e+12,1.0,0.0,1015.85,1177.06,0.0414032,0.0666471,1.83e+05,102181,20807,100000000.0,2.05402e-06,0.733809,0.899236,0.94,0.294413,0.226385,3.42197e-05,0.000101315,0.992368,0.0,1683.0,1235.0,
173,30552.6,3.05e+12,1.0,0.0,1017.79,1178.03,0.0414317,0.0662947,1.82e+05,102202,21111.7,100000000.0,2.00616e-06,0.733809,0.900659,0.94,0.294983,0.225256,3.43449e-05,0.00010328,0.992014,0.0,1683.0,1235.0,
174,30745,3.02e+12,1.0,0.0,1018.96,1179.47,0.0415431,0.0656453,1.82e+05,102279,21141.9,100000000.0,1.98235e-06,0.733809,0.90139,0.94,0.295446,0.2247,3.43881e-05,0.000104878,0.992092,0.0,1683.0,1235.0,
175,30894.4,2.97e+12,1.0,0.0,1021.62,1178.85,0.0415572,0.0654858,1.82e+05,102187,21561.9,100000000.0,1.87893e-06,0.733809,0.903015,0.94,0.296395,0.222806,3.45418e-05,0.000107024,0.992618,0.0,1683.0,1235.0,
176,31057.3,2.89e+12,1.0,0.0,1025.14,1177.1,0.0416482,0.0657783,1.82e+05,102048,22054.4,100000000.0,1.7984e-06,0.733809,0.905135,0.94,0.297813,0.220524,3.44827e-05,0.00010931,0.993225,0.0,1683.0,1235.0,
177,31223.9,2.86e+12,1.0,0.0,1027,1176.87,0.0417477,0.0658187,1.82e+05,102017,22178.7,100000000.0,1.78535e-06,0.733809,0.906248,0.94,0.298459,0.219728,3.4699e-05,0.000110277,0.993221,0.0,1683.0,1235.0,
178,31385.3,2.89e+12,1.0,0.0,1026.27,1176.82,0.0416289,0.0659827,1.82e+05,101993,22268.6,100000000.0,1.77299e-06,0.733809,0.905874,0.94,0.298173,0.219078,3.45569e-05,0.000111061,0.993286,0.0,1683.0,1235.0,
179,31543.6,2.85e+12,1.0,0.0,1029.46,1176.86,0.0416162,0.0658389,1.82e+05,101907,22898.9,100000000.0,1.74469e-06,0.733809,0.907877,0.94,0.299479,0.214658,3.43191e-05,0.000117167,0.993885,0.0,1683.0,1235.0,
180,31691.8,2.83e+12,1.0,0.0,1032.37,1177.05,0.0415486,0.0661346,1.82e+05,101839,23619.6,100000000.0,1.73707e-06,0.733809,0.909798,0.94,0.300688,0.209518,3.39481e-05,0.000124532,0.994364,0.0,1683.0,1235.0,
181,31860.8,2.84e+12,1.0,0.0,1031.51,1177.85,0.0415848,0.0659802,1.82e+05,101912,23461,100000000.0,1.72738e-06,0.733809,0.909306,0.94,0.300452,0.210499,3.37569e-05,0.000123701,0.993857,0.0,1683.0,1235.0,
182,32026.4,2.83e+12,1.0,0.0,1031.86,1178.46,0.0415971,0.0655121,1.82e+05,101919,23539.5,100000000.0,1.71941e-06,0.733809,0.909544,0.94,0.300664,0.209998,3.35921e-05,0.000124593,0.993581,0.0,1683.0,1235.0,
183,32189.2,2.85e+12,1.0,0.0,1032.12,1178.97,0.0415507,0.0653336,1.82e+05,101915,23667.4,100000000.0,1.70134e-06,0.733809,0.909686,0.94,0.300822,0.208994,3.34473e-05,0.000126193,0.993556,0.0,1683.0,1235.0,
184,32371,2.86e+12,1.0,0.0,1034.12,1178.91,0.0414586,0.0657263,1.82e+05,101853,24130,100000000.0,1.6888e-06,0.733809,0.91092,0.94,0.30165,0.206512,3.32161e-05,0.00012965,0.994095,0.0,1683.0,1235.0,
185,32553.4,2.83e+12,1.0,0.0,1035.32,1179.31,0.0416904,0.0650123,1.82e+05,101925,23849.1,100000000.0,1.667e-06,0.733809,0.911821,0.94,0.302065,0.211397,3.32023e-05,0.00012302,0.993641,0.0,1683.0,1235.0,
186,32740.6,2.83e+12,1.0,0.0,1034.95,1178.74,0.0417049,0.0655909,1.82e+05,101922,23745.3,100000000.0,1.65403e-06,0.733809,0.911626,0.94,0.301844,0.211413,3.33131e-05,0.000122898,0.993563,0.0,1683.0,1235.0,
187,32903.2,2.83e+12,1.0,0.0,1036.15,1178.43,0.0418815,0.0653929,1.82e+05,101982,23401.4,100000000.0,1.63525e-06,0.733809,0.912427,0.94,0.302139,0.218374,3.35691e-05,0.000113069,0.993747,0.0,1683.0,1235.0,
188,33062,2.83e+12,1.0,0.0,1035.92,1178.04,0.0419445,0.0651109,1.82e+05,101976,23159.6,100000000.0,1.62606e-06,0.733809,0.912258,0.94,0.301918,0.22117,3.38813e-05,0.000108755,0.993775,0.0,1683.0,1235.0,
189,33219.3,2.79e+12,1.0,0.0,1037.24,1173.82,0.0421582,0.0702687,1.82e+05,101977,22977,100000000.0,1.6067e-06,0.733809,0.913162,0.94,0.302287,0.223877,3.41454e-05,0.000104673,0.993575,0.0,1683.0,1235.0,
190,33366.9,2.78e+12,1.0,0.0,1037.22,1167.42,0.0424763,0.0771473,1.82e+05,101992,22205.2,100000000.0,1.58015e-06,0.733809,0.913278,0.94,0.302105,0.230757,3.44512e-05,9.42689e-05,0.993349,0.0,1683.0,1235.0,
191,33533.6,2.77e+12,1.0,0.0,1038.76,1158.44,0.0428446,0.0872121,1.82e+05,102056,21454.5,100000000.0,1.56011e-06,0.733809,0.914328,0.94,0.302387,0.242751,3.50339e-05,7.66281e-05,0.993975,0.0,1683.0,1235.0,
192,33696.3,2.77e+12,1.0,0.0,1039.88,1148.4,0.0430525,0.10086,1.82e+05,102039,21232.3,100000000.0,1.54207e-06,0.733809,0.915139,0.94,0.302826,0.2434,3.49394e-05,7.54967e-05,0.993842,0.0,1683.0,1235.0,
193,33857.9,2.75e+12,1.0,0.0,1043.14,1133.67,0.0435088,0.11985,1.82e+05,101971,20794.9,100000000.0,1.53597e-06,0.733809,0.917353,0.94,0.303814,0.245322,3.53546e-05,7.20288e-05,0.993785,0.0,1683.0,1235.0,
194,34015.4,2.74e+12,1.0,0.0,1043.3,1135.24,0.0435017,0.118043,1.82e+05,101977,20821,100000000.0,1.52308e-06,0.733809,0.917446,0.94,0.303943,0.245405,3.52245e-05,7.20654e-05,0.993999,0.0,1683.0,1235.0,
195,34177,2.74e+12,1.0,0.0,1044.42,1132.56,0.0435838,0.121084,1.82e+05,101909,20801.1,100000000.0,1.51482e-06,0.733809,0.918106,0.94,0.304402,0.244689,3.52053e-05,7.26482e-05,0.99437,0.0,1683.0,1235.0,
196,34338,2.73e+12,1.0,0.0,1043.75,1137,0.0435213,0.114426,1.82e+05,101899,20795.6,100000000.0,1.5089e-06,0.733809,0.917647,0.94,0.304144,0.245712,3.52456e-05,7.10183e-05,0.994324,0.0,1683.0,1235.0,
197,34503.8,2.73e+12,1.0,0.0,1043.74,1145.37,0.0434034,0.102759,1.82e+05,101886,20972.5,100000000.0,1.50284e-06,0.733809,0.917611,0.94,0.304234,0.245405,3.50205e-05,7.15082e-05,0.994537,0.0,1683.0,1235.0,
198,34662.1,2.74e+12,1.0,0.0,1043.27,1143.09,0.0434273,0.105803,1.82e+05,101879,20869.9,100000000.0,1.49765e-06,0.733809,0.917332,0.94,0.304089,0.24525,3.4942e-05,7.16211e-05,0.994437,0.0,1683.0,1235.0,
199,34820.5,2.76e+12,1.0,0.0,1042.49,1134.64,0.0434846,0.116986,1.82e+05,101867,20605.6,100000000.0,1.49283e-06,0.733809,0.916807,0.94,0.303741,0.245059,3.51162e-05,7.15634e-05,0.994751,0.0,1683.0,1235.0,