File: results/E_Glass/1Mass_DSC_BT/E_Glass_linear_dsc_M_BT_0_cone_BT.csv
# Time [s], Temperature [C]
0.000000000000000000e+00,25
2,25
4,25
6,25
8,25.0002
10,25.0015
12,25.007
14,25.0235
16,25.0614
18,25.134
20,25.2549
22,25.4373
24,25.6922
26,26.0288
28,26.4536
30,26.9711
32,27.5836
34,28.2921
36,29.096
38,29.9938
40,30.983
42,32.0607
44,33.2233
46,34.4673
48,35.7886
50,37.1833
52,38.6472
54,40.1765
56,41.7671
58,43.4152
60,45.1171
62,46.8692
64,48.6679
66,50.5101
68,52.3925
70,54.3122
72,56.2663
74,58.2521
76,60.267
78,62.3087
80,64.3748
82,66.4631
84,68.5717
86,70.6986
88,72.8421
90,75.0003
92,77.1717
94,79.3548
96,81.5482
98,83.7505
100,85.9605
102,88.177
104,90.3989
106,92.6251
108,94.8547
110,97.0868
112,99.3204
114,101.555
116,103.789
118,106.023
120,108.255
122,110.486
124,112.714
126,114.938
128,117.159
130,119.376
132,121.589
134,123.796
136,125.998
138,128.194
140,130.385
142,132.568
144,134.745
146,136.916
148,139.078
150,141.234
152,143.382
154,145.522
156,147.653
158,149.777
160,151.892
162,153.999
164,156.097
166,158.186
168,160.266
170,162.337
172,164.399
174,166.452
176,168.495
178,170.529
180,172.553
182,174.568
184,176.574
186,178.569
188,180.555
190,182.531
192,184.497
194,186.453
196,188.4
198,190.336
200,192.263
202,194.179
204,196.086
206,197.982
208,199.868
210,201.744
212,203.61
214,205.466
216,207.312
218,209.147
220,210.973
222,212.788
224,214.593
226,216.387
228,218.172
230,219.946
232,221.71
234,223.463
236,225.206
238,226.939
240,228.662
242,230.374
244,232.076
246,233.767
248,235.448
250,237.119
252,238.779
254,240.429
256,242.068
258,243.697
260,245.315
262,246.923
264,248.52
266,250.107
268,251.683
270,253.249
272,254.804
274,256.348
276,257.882
278,259.405
280,260.917
282,262.419
284,263.909
286,265.389
288,266.859
290,268.317
292,269.765
294,271.201
296,272.627
298,274.042
300,275.445
302,276.838
304,278.22
306,279.59
308,280.95
310,282.298
312,283.635
314,284.96
316,286.274
318,287.577
320,288.868
322,290.148
324,291.416
326,292.673
328,293.917
330,295.15
332,296.371
334,297.58
336,298.777
338,299.962
340,301.135
342,302.295
344,303.444
346,304.579
348,305.703
350,306.814
352,307.913
354,308.998
356,310.072
358,311.132
360,312.18
362,313.215
364,314.237
366,315.246
368,316.242
370,317.224
372,318.194
374,319.151
376,320.095
378,321.025
380,321.942
382,322.846
384,323.737
386,324.615
388,325.479
390,326.33
392,327.168
394,327.992
396,328.803
398,329.601
400,330.386
402,331.158
404,331.917
406,332.663
408,333.395
410,334.115
412,334.822
414,335.517
416,336.198
418,336.868
420,337.524
422,338.169
424,338.801
426,339.421
428,340.029
430,340.626
432,341.21
434,341.784
436,342.346
438,342.896
440,343.436
442,343.965
444,344.483
446,344.991
448,345.489
450,345.977
452,346.454
454,346.922
456,347.381
458,347.831
460,348.271
462,348.703
464,349.126
466,349.54
468,349.947
470,350.345
472,350.736
474,351.12
476,351.496
478,351.865
480,352.227
482,352.582
484,352.931
486,353.274
488,353.611
490,353.942
492,354.268
494,354.588
496,354.903
498,355.213
500,355.518
502,355.819
504,356.115
506,356.407
508,356.695
510,356.979
512,357.259
514,357.535
516,357.809
518,358.079
520,358.346
522,358.61
524,358.871
526,359.13
528,359.386
530,359.64
532,359.892
534,360.142
536,360.389
538,360.635
540,360.88
542,361.122
544,361.363
546,361.603
548,361.842
550,362.079
552,362.315
554,362.551
556,362.785
558,363.019
560,363.252
562,363.485
564,363.716
566,363.948
568,364.179
570,364.41
572,364.641
574,364.871
576,365.102
578,365.333
580,365.563
582,365.794
584,366.025
586,366.256
588,366.488
590,366.72
592,366.952
594,367.185
596,367.418
598,367.653
600,367.887
602,368.123
604,368.359
606,368.596
608,368.833
610,369.072
612,369.312
614,369.552
616,369.794
618,370.037
620,370.28
622,370.525
624,370.771
626,371.019
628,371.267
630,371.517
632,371.768
634,372.021
636,372.275
638,372.531
640,372.788
642,373.046
644,373.307
646,373.569
648,373.832
650,374.097
652,374.364
654,374.633
656,374.903
658,375.176
660,375.45
662,375.726
664,376.004
666,376.284
668,376.567
670,376.851
672,377.137
674,377.426
676,377.717
678,378.01
680,378.305
682,378.603
684,378.903
686,379.205
688,379.51
690,379.817
692,380.127
694,380.44
696,380.755
698,381.073
700,381.394
702,381.717
704,382.043
706,382.372
708,382.704
710,383.039
712,383.377
714,383.718
716,384.062
718,384.41
720,384.76
722,385.114
724,385.471
726,385.831
728,386.195
730,386.563
732,386.933
734,387.308
736,387.686
738,388.067
740,388.453
742,388.842
744,389.235
746,389.632
748,390.032
750,390.437
752,390.846
754,391.259
756,391.676
758,392.097
760,392.522
762,392.951
764,393.385
766,393.823
768,394.266
770,394.713
772,395.164
774,395.62
776,396.08
778,396.544
780,397.014
782,397.487
784,397.966
786,398.448
788,398.936
790,399.428
792,399.924
794,400.425
796,400.93
798,401.44
800,401.954
802,402.472
804,402.995
806,403.522
808,404.053
810,404.588
812,405.127
814,405.67
816,406.216
818,406.766
820,407.319
822,407.876
824,408.436
826,408.998
828,409.564
830,410.131
832,410.701
834,411.273
836,411.847
838,412.422
840,412.998
842,413.575
844,414.153
846,414.732
848,415.31
850,415.888
852,416.466
854,417.042
856,417.618
858,418.192
860,418.764
862,419.334
864,419.902
866,420.466
868,421.029
870,421.587
872,422.143
874,422.694
876,423.242
878,423.785
880,424.325
882,424.859
884,425.39
886,425.915
888,426.435
890,426.951
892,427.462
894,427.967
896,428.467
898,428.963
900,429.453
902,429.938
904,430.418
906,430.893
908,431.362
910,431.827
912,432.287
914,432.742
916,433.192
918,433.638
920,434.078
922,434.514
924,434.946
926,435.373
928,435.796
930,436.215
932,436.629
934,437.039
936,437.445
938,437.847
940,438.245
942,438.639
944,439.03
946,439.416
948,439.799
950,440.178
952,440.554
954,440.926
956,441.294
958,441.659
960,442.021
962,442.379
964,442.734
966,443.085
968,443.434
970,443.779
972,444.12
974,444.459
976,444.795
978,445.127
980,445.456
982,445.783
984,446.106
986,446.427
988,446.744
990,447.059
992,447.37
994,447.679
996,447.985
998,448.288
1000,448.589
1000,448.589
1000,448.589
1010,450.05
1010,450.05
1010,450.05
1010,450.05
1010,450.05
1020,451.446
1020,451.446
1020,451.446
1020,451.446
1020,451.446
1030,452.779
1030,452.779
1030,452.779
1030,452.779
1030,452.779
1040,454.053
1040,454.053
1040,454.053
1040,454.053
1040,454.053
1050,455.269
1050,455.269
1050,455.269
1050,455.269
1050,455.269
1060,456.431
1060,456.431
1060,456.431
1060,456.431
1060,456.431
1070,457.54
1070,457.54
1070,457.54
1070,457.54
1070,457.54
1080,458.6
1080,458.6
1080,458.6
1080,458.6
1080,458.6
1090,459.611
1090,459.611
1090,459.611
1090,459.611
1090,459.611
1100,460.578
1100,460.578
1100,460.578
1100,460.578
1100,460.578
1110,461.5
1110,461.5
1110,461.5
1110,461.5
1110,461.5
1120,462.381
1120,462.381
1120,462.381
1120,462.381
1120,462.381
1130,463.222
1130,463.222
1130,463.222
1130,463.222
1130,463.222
1140,464.025
1140,464.025
1140,464.025
1140,464.025
1140,464.025
1150,464.792
1150,464.792
1150,464.792
1150,464.792
1150,464.792
1160,465.524
1160,465.524
1160,465.524
1160,465.524
1160,465.524
1170,466.223
1170,466.223
1170,466.223
1170,466.223
1170,466.223
1180,466.89
1180,466.89
1180,466.89
1180,466.89
1180,466.89
1190,467.526
1190,467.526
1190,467.526
1190,467.526
1190,467.526
1200,468.134
1200,468.134
1200,468.134
1200,468.134
1200,468.134
1210,468.714
1210,468.714
1210,468.714
1210,468.714
1210,468.714
1220,469.268
1220,469.268
1220,469.268
1220,469.268
1220,469.268
1230,469.797
1230,469.797
1230,469.797
1230,469.797
1230,469.797
1240,470.301
1240,470.301
1240,470.301
1240,470.301
1240,470.301
1250,470.782
1250,470.782
1250,470.782
1250,470.782
1250,470.782
1260,471.242
1260,471.242
1260,471.242
1260,471.242
1260,471.242
1270,471.68
1270,471.68
1270,471.68
1270,471.68
1270,471.68
1280,472.099
1280,472.099
1280,472.099
1280,472.099
1280,472.099
1290,472.498
1290,472.498
1290,472.498
1290,472.498
1290,472.498
1300,472.88
1300,472.88
1300,472.88
1300,472.88
1300,472.88
1310,473.243
1310,473.243
1310,473.243
1310,473.243
1310,473.243
1320,473.59
1320,473.59
1320,473.59
1320,473.59
1320,473.59
1330,473.922
1330,473.922
1330,473.922
1330,473.922
1330,473.922
1340,474.238
1340,474.238
1340,474.238
1340,474.238
1340,474.238
1350,474.539
1350,474.539
1350,474.539
1350,474.539
1350,474.539
1360,474.827
1360,474.827
1360,474.827
1360,474.827
1360,474.827
1370,475.102
1370,475.102
1370,475.102
1370,475.102
1370,475.102
1380,475.364
1380,475.364
1380,475.364
1380,475.364
1380,475.364
1390,475.614
1390,475.614
1390,475.614
1390,475.614
1390,475.614
1400,475.853
1400,475.853
1400,475.853
1400,475.853
1400,475.853
1410,476.08
1410,476.08
1410,476.08
1410,476.08
1410,476.08
1420,476.297
1420,476.297
1420,476.297
1420,476.297
1420,476.297
1430,476.505
1430,476.505
1430,476.505
1430,476.505
1430,476.505
1440,476.702
1440,476.702
1440,476.702
1440,476.702
1440,476.702
1450,476.891
1450,476.891
1450,476.891
1450,476.891
1450,476.891
1460,477.071
1460,477.071
1460,477.071
1460,477.071
1460,477.071
1470,477.243
1470,477.243
1470,477.243
1470,477.243
1470,477.243
1480,477.407
1480,477.407
1480,477.407
1480,477.407
1480,477.407
1490,477.563
1490,477.563
1490,477.563
1490,477.563
1490,477.563
1500,477.712
1500,477.712
1500,477.712
1500,477.712
1500,477.712
1510,477.855
1510,477.855
1510,477.855
1510,477.855
1510,477.855
1520,477.991
1520,477.991
1520,477.991
1520,477.991
1520,477.991
1530,478.12
1530,478.12
1530,478.12
1530,478.12
1530,478.12
1540,478.244
1540,478.244
1540,478.244
1540,478.244
1540,478.244
1550,478.362
1550,478.362
1550,478.362
1550,478.362
1550,478.362
1560,478.474
1560,478.474
1560,478.474
1560,478.474
1560,478.474
1570,478.581
1570,478.581
1570,478.581
1570,478.581
1570,478.581
1580,478.684
1580,478.684
1580,478.684
1580,478.684
1580,478.684
1590,478.782
1590,478.782
1590,478.782
1590,478.782
1590,478.782
1600,478.875
1600,478.875
1600,478.875
1600,478.875
1600,478.875
1610,478.964
1610,478.964
1610,478.964
1610,478.964
1610,478.964
1620,479.048
1620,479.048
1620,479.048
1620,479.048
1620,479.048
1630,479.129
1630,479.129
1630,479.129
1630,479.129
1630,479.129
1640,479.207
1640,479.207
1640,479.207
1640,479.207
1640,479.207
1650,479.28
1650,479.28
1650,479.28
1650,479.28
1650,479.28
1660,479.351
1660,479.351
1660,479.351
1660,479.351
1660,479.351
1670,479.418
1670,479.418
1670,479.418
1670,479.418
1670,479.418
1680,479.482
1680,479.482
1680,479.482
1680,479.482
1680,479.482
1690,479.543
1690,479.543
1690,479.543
1690,479.543
1690,479.543
1700,479.601
1700,479.601
1700,479.601
1700,479.601
1700,479.601
1710,479.656
1710,479.656
1710,479.656
1710,479.656
1710,479.656
1720,479.709
1720,479.709
1720,479.709
1720,479.709
1720,479.709
1730,479.76
1730,479.76
1730,479.76
1730,479.76
1730,479.76
1740,479.808
1740,479.808
1740,479.808
1740,479.808
1740,479.808
1750,479.854
1750,479.854
1750,479.854
1750,479.854
1750,479.854
1760,479.898
1760,479.898
1760,479.898
1760,479.898
1760,479.898
1770,479.94
1770,479.94
1770,479.94
1770,479.94
1770,479.94
1780,479.98
1780,479.98
1780,479.98
1780,479.98
1780,479.98
1790,480.018
1790,480.018
1790,480.018
1790,480.018
1790,480.018
1800,480.054
1800,480.054
1800,480.054