File: results/E_Glass/1Mass_DSC_BT/E_Glass_linear_dsc_M_BT_0_cone_Mass.csv
# Time [s], Mass [Kg]
0.000000000000000000e+00,1
2,1
4,1
6,1
8,1
10,1
12,1
14,1
16,1
18,1
20,1
22,1
24,1
26,1
28,1
30,1
32,1
34,1
36,1
38,1
40,1
42,1
44,1
46,1
48,1
50,1
52,1
54,1
56,1
58,1
60,1
62,1
64,1
66,1
68,1
70,1
72,1
74,1
76,1
78,1
80,1
82,1
84,1
86,1
88,0.999999
90,0.999999
92,0.999999
94,0.999999
96,0.999999
98,0.999999
100,0.999998
102,0.999998
104,0.999998
106,0.999997
108,0.999997
110,0.999997
112,0.999996
114,0.999995
116,0.999995
118,0.999994
120,0.999993
122,0.999992
124,0.999991
126,0.99999
128,0.999988
130,0.999987
132,0.999985
134,0.999983
136,0.999981
138,0.999979
140,0.999977
142,0.999974
144,0.999971
146,0.999967
148,0.999964
150,0.999959
152,0.999955
154,0.99995
156,0.999945
158,0.999939
160,0.999932
162,0.999925
164,0.999918
166,0.999909
168,0.9999
170,0.999891
172,0.99988
174,0.999868
176,0.999856
178,0.999842
180,0.999828
182,0.999812
184,0.999795
186,0.999777
188,0.999757
190,0.999735
192,0.999713
194,0.999688
196,0.999661
198,0.999633
200,0.999603
202,0.99957
204,0.999535
206,0.999498
208,0.999458
210,0.999415
212,0.99937
214,0.999321
216,0.99927
218,0.999215
220,0.999156
222,0.999094
224,0.999028
226,0.998958
228,0.998883
230,0.998804
232,0.998721
234,0.998632
236,0.998539
238,0.99844
240,0.998335
242,0.998225
244,0.998109
246,0.997986
248,0.997857
250,0.997721
252,0.997578
254,0.997428
256,0.997271
258,0.997105
260,0.996932
262,0.99675
264,0.996559
266,0.99636
268,0.996152
270,0.995934
272,0.995706
274,0.995469
276,0.995221
278,0.994963
280,0.994695
282,0.994415
284,0.994124
286,0.993822
288,0.993508
290,0.993182
292,0.992844
294,0.992493
296,0.99213
298,0.991754
300,0.991365
302,0.990963
304,0.990548
306,0.990118
308,0.989675
310,0.989218
312,0.988747
314,0.988262
316,0.987762
318,0.987248
320,0.986719
322,0.986175
324,0.985616
326,0.985042
328,0.984453
330,0.983849
332,0.98323
334,0.982595
336,0.981945
338,0.981279
340,0.980598
342,0.979901
344,0.979189
346,0.978461
348,0.977718
350,0.976959
352,0.976184
354,0.975394
356,0.974588
358,0.973767
360,0.97293
362,0.972078
364,0.971211
366,0.970328
368,0.96943
370,0.968517
372,0.967589
374,0.966645
376,0.965687
378,0.964714
380,0.963727
382,0.962725
384,0.961709
386,0.960678
388,0.959633
390,0.958575
392,0.957502
394,0.956416
396,0.955317
398,0.954204
400,0.953078
402,0.95194
404,0.950789
406,0.949625
408,0.94845
410,0.947262
412,0.946063
414,0.944852
416,0.94363
418,0.942397
420,0.941153
422,0.939899
424,0.938635
426,0.937361
428,0.936078
430,0.934785
432,0.933483
434,0.932173
436,0.930854
438,0.929527
440,0.928193
442,0.926851
444,0.925502
446,0.924146
448,0.922783
450,0.921415
452,0.92004
454,0.91866
456,0.917275
458,0.915885
460,0.91449
462,0.913091
464,0.911688
466,0.910282
468,0.908872
470,0.907459
472,0.906043
474,0.904625
476,0.903204
478,0.901782
480,0.900358
482,0.898933
484,0.897507
486,0.89608
488,0.894653
490,0.893226
492,0.891798
494,0.890371
496,0.888944
498,0.887518
500,0.886093
502,0.88467
504,0.883248
506,0.881827
508,0.880408
510,0.878992
512,0.877577
514,0.876166
516,0.874756
518,0.87335
520,0.871947
522,0.870546
524,0.86915
526,0.867756
528,0.866367
530,0.864981
532,0.863599
534,0.862221
536,0.860847
538,0.859478
540,0.858113
542,0.856753
544,0.855398
546,0.854047
548,0.852701
550,0.85136
552,0.850024
554,0.848694
556,0.847369
558,0.846049
560,0.844735
562,0.843426
564,0.842122
566,0.840825
568,0.839533
570,0.838247
572,0.836967
574,0.835693
576,0.834425
578,0.833163
580,0.831907
582,0.830657
584,0.829413
586,0.828176
588,0.826945
590,0.82572
592,0.824502
594,0.82329
596,0.822085
598,0.820886
600,0.819694
602,0.818508
604,0.817329
606,0.816157
608,0.814991
610,0.813832
612,0.81268
614,0.811535
616,0.810396
618,0.809265
620,0.80814
622,0.807022
624,0.805911
626,0.804808
628,0.803711
630,0.802621
632,0.801538
634,0.800463
636,0.799394
638,0.798333
640,0.797279
642,0.796232
644,0.795192
646,0.79416
648,0.793134
650,0.792117
652,0.791106
654,0.790103
656,0.789108
658,0.78812
660,0.787139
662,0.786166
664,0.785201
666,0.784243
668,0.783293
670,0.78235
672,0.781415
674,0.780488
676,0.779569
678,0.778658
680,0.777754
682,0.776858
684,0.775971
686,0.775091
688,0.774219
690,0.773356
692,0.7725
694,0.771653
696,0.770814
698,0.769983
700,0.76916
702,0.768346
704,0.767541
706,0.766743
708,0.765954
710,0.765174
712,0.764403
714,0.76364
716,0.762885
718,0.76214
720,0.761403
722,0.760676
724,0.759957
726,0.759247
728,0.758546
730,0.757855
732,0.757173
734,0.756499
736,0.755836
738,0.755181
740,0.754536
742,0.753901
744,0.753275
746,0.752658
748,0.752052
750,0.751455
752,0.750868
754,0.750291
756,0.749723
758,0.749166
760,0.748619
762,0.748082
764,0.747555
766,0.747038
768,0.746532
770,0.746036
772,0.74555
774,0.745075
776,0.744611
778,0.744156
780,0.743713
782,0.74328
784,0.742858
786,0.742446
788,0.742045
790,0.741655
792,0.741276
794,0.740907
796,0.74055
798,0.740203
800,0.739866
802,0.739541
804,0.739226
806,0.738922
808,0.738629
810,0.738346
812,0.738073
814,0.737812
816,0.73756
818,0.737319
820,0.737088
822,0.736868
824,0.736657
826,0.736456
828,0.736265
830,0.736083
832,0.735911
834,0.735748
836,0.735594
838,0.735449
840,0.735312
842,0.735184
844,0.735063
846,0.734951
848,0.734846
850,0.734748
852,0.734658
854,0.734574
856,0.734496
858,0.734425
860,0.73436
862,0.7343
864,0.734245
866,0.734195
868,0.73415
870,0.734109
872,0.734072
874,0.734039
876,0.73401
878,0.733983
880,0.73396
882,0.733939
884,0.733921
886,0.733905
888,0.73389
890,0.733878
892,0.733868
894,0.733858
896,0.73385
898,0.733844
900,0.733838
902,0.733833
904,0.733829
906,0.733825
908,0.733822
910,0.73382
912,0.733818
914,0.733816
916,0.733814
918,0.733813
920,0.733812
922,0.733812
924,0.733811
926,0.73381
928,0.73381
930,0.73381
932,0.73381
934,0.733809
936,0.733809
938,0.733809
940,0.733809
942,0.733809
944,0.733809
946,0.733809
948,0.733809
950,0.733809
952,0.733809
954,0.733809
956,0.733809
958,0.733809
960,0.733809
962,0.733809
964,0.733809
966,0.733809
968,0.733809
970,0.733809
972,0.733809
974,0.733809
976,0.733809
978,0.733809
980,0.733809
982,0.733809
984,0.733809
986,0.733809
988,0.733809
990,0.733809
992,0.733809
994,0.733809
996,0.733809
998,0.733809
1000,0.733809
1000,0.733809
1000,0.733809
1010,0.733809
1010,0.733809
1010,0.733809
1010,0.733809
1010,0.733809
1020,0.733809
1020,0.733809
1020,0.733809
1020,0.733809
1020,0.733809
1030,0.733809
1030,0.733809
1030,0.733809
1030,0.733809
1030,0.733809
1040,0.733809
1040,0.733809
1040,0.733809
1040,0.733809
1040,0.733809
1050,0.733809
1050,0.733809
1050,0.733809
1050,0.733809
1050,0.733809
1060,0.733809
1060,0.733809
1060,0.733809
1060,0.733809
1060,0.733809
1070,0.733809
1070,0.733809
1070,0.733809
1070,0.733809
1070,0.733809
1080,0.733809
1080,0.733809
1080,0.733809
1080,0.733809
1080,0.733809
1090,0.733809
1090,0.733809
1090,0.733809
1090,0.733809
1090,0.733809
1100,0.733809
1100,0.733809
1100,0.733809
1100,0.733809
1100,0.733809
1110,0.733809
1110,0.733809
1110,0.733809
1110,0.733809
1110,0.733809
1120,0.733809
1120,0.733809
1120,0.733809
1120,0.733809
1120,0.733809
1130,0.733809
1130,0.733809
1130,0.733809
1130,0.733809
1130,0.733809
1140,0.733809
1140,0.733809
1140,0.733809
1140,0.733809
1140,0.733809
1150,0.733809
1150,0.733809
1150,0.733809
1150,0.733809
1150,0.733809
1160,0.733809
1160,0.733809
1160,0.733809
1160,0.733809
1160,0.733809
1170,0.733809
1170,0.733809
1170,0.733809
1170,0.733809
1170,0.733809
1180,0.733809
1180,0.733809
1180,0.733809
1180,0.733809
1180,0.733809
1190,0.733809
1190,0.733809
1190,0.733809
1190,0.733809
1190,0.733809
1200,0.733809
1200,0.733809
1200,0.733809
1200,0.733809
1200,0.733809
1210,0.733809
1210,0.733809
1210,0.733809
1210,0.733809
1210,0.733809
1220,0.733809
1220,0.733809
1220,0.733809
1220,0.733809
1220,0.733809
1230,0.733809
1230,0.733809
1230,0.733809
1230,0.733809
1230,0.733809
1240,0.733809
1240,0.733809
1240,0.733809
1240,0.733809
1240,0.733809
1250,0.733809
1250,0.733809
1250,0.733809
1250,0.733809
1250,0.733809
1260,0.733809
1260,0.733809
1260,0.733809
1260,0.733809
1260,0.733809
1270,0.733809
1270,0.733809
1270,0.733809
1270,0.733809
1270,0.733809
1280,0.733809
1280,0.733809
1280,0.733809
1280,0.733809
1280,0.733809
1290,0.733809
1290,0.733809
1290,0.733809
1290,0.733809
1290,0.733809
1300,0.733809
1300,0.733809
1300,0.733809
1300,0.733809
1300,0.733809
1310,0.733809
1310,0.733809
1310,0.733809
1310,0.733809
1310,0.733809
1320,0.733809
1320,0.733809
1320,0.733809
1320,0.733809
1320,0.733809
1330,0.733809
1330,0.733809
1330,0.733809
1330,0.733809
1330,0.733809
1340,0.733809
1340,0.733809
1340,0.733809
1340,0.733809
1340,0.733809
1350,0.733809
1350,0.733809
1350,0.733809
1350,0.733809
1350,0.733809
1360,0.733809
1360,0.733809
1360,0.733809
1360,0.733809
1360,0.733809
1370,0.733809
1370,0.733809
1370,0.733809
1370,0.733809
1370,0.733809
1380,0.733809
1380,0.733809
1380,0.733809
1380,0.733809
1380,0.733809
1390,0.733809
1390,0.733809
1390,0.733809
1390,0.733809
1390,0.733809
1400,0.733809
1400,0.733809
1400,0.733809
1400,0.733809
1400,0.733809
1410,0.733809
1410,0.733809
1410,0.733809
1410,0.733809
1410,0.733809
1420,0.733809
1420,0.733809
1420,0.733809
1420,0.733809
1420,0.733809
1430,0.733809
1430,0.733809
1430,0.733809
1430,0.733809
1430,0.733809
1440,0.733809
1440,0.733809
1440,0.733809
1440,0.733809
1440,0.733809
1450,0.733809
1450,0.733809
1450,0.733809
1450,0.733809
1450,0.733809
1460,0.733809
1460,0.733809
1460,0.733809
1460,0.733809
1460,0.733809
1470,0.733809
1470,0.733809
1470,0.733809
1470,0.733809
1470,0.733809
1480,0.733809
1480,0.733809
1480,0.733809
1480,0.733809
1480,0.733809
1490,0.733809
1490,0.733809
1490,0.733809
1490,0.733809
1490,0.733809
1500,0.733809
1500,0.733809
1500,0.733809
1500,0.733809
1500,0.733809
1510,0.733809
1510,0.733809
1510,0.733809
1510,0.733809
1510,0.733809
1520,0.733809
1520,0.733809
1520,0.733809
1520,0.733809
1520,0.733809
1530,0.733809
1530,0.733809
1530,0.733809
1530,0.733809
1530,0.733809
1540,0.733809
1540,0.733809
1540,0.733809
1540,0.733809
1540,0.733809
1550,0.733809
1550,0.733809
1550,0.733809
1550,0.733809
1550,0.733809
1560,0.733809
1560,0.733809
1560,0.733809
1560,0.733809
1560,0.733809
1570,0.733809
1570,0.733809
1570,0.733809
1570,0.733809
1570,0.733809
1580,0.733809
1580,0.733809
1580,0.733809
1580,0.733809
1580,0.733809
1590,0.733809
1590,0.733809
1590,0.733809
1590,0.733809
1590,0.733809
1600,0.733809
1600,0.733809
1600,0.733809
1600,0.733809
1600,0.733809
1610,0.733809
1610,0.733809
1610,0.733809
1610,0.733809
1610,0.733809
1620,0.733809
1620,0.733809
1620,0.733809
1620,0.733809
1620,0.733809
1630,0.733809
1630,0.733809
1630,0.733809
1630,0.733809
1630,0.733809
1640,0.733809
1640,0.733809
1640,0.733809
1640,0.733809
1640,0.733809
1650,0.733809
1650,0.733809
1650,0.733809
1650,0.733809
1650,0.733809
1660,0.733809
1660,0.733809
1660,0.733809
1660,0.733809
1660,0.733809
1670,0.733809
1670,0.733809
1670,0.733809
1670,0.733809
1670,0.733809
1680,0.733809
1680,0.733809
1680,0.733809
1680,0.733809
1680,0.733809
1690,0.733809
1690,0.733809
1690,0.733809
1690,0.733809
1690,0.733809
1700,0.733809
1700,0.733809
1700,0.733809
1700,0.733809
1700,0.733809
1710,0.733809
1710,0.733809
1710,0.733809
1710,0.733809
1710,0.733809
1720,0.733809
1720,0.733809
1720,0.733809
1720,0.733809
1720,0.733809
1730,0.733809
1730,0.733809
1730,0.733809
1730,0.733809
1730,0.733809
1740,0.733809
1740,0.733809
1740,0.733809
1740,0.733809
1740,0.733809
1750,0.733809
1750,0.733809
1750,0.733809
1750,0.733809
1750,0.733809
1760,0.733809
1760,0.733809
1760,0.733809
1760,0.733809
1760,0.733809
1770,0.733809
1770,0.733809
1770,0.733809
1770,0.733809
1770,0.733809
1780,0.733809
1780,0.733809
1780,0.733809
1780,0.733809
1780,0.733809
1790,0.733809
1790,0.733809
1790,0.733809
1790,0.733809
1790,0.733809
1800,0.733809
1800,0.733809
1800,0.733809