File: results/E_Glass/1Mass_DSC/E_Glass_linear_dsc_M_0_cone_FT.csv
# Time [s], Temperature [C]
0.000000000000000000e+00,25
2,45.4444
4,66.2152
6,80.7509
8,92.3413
10,102.144
12,110.72
14,118.381
16,125.336
18,131.716
20,137.621
22,143.124
24,148.284
26,153.141
28,157.734
30,162.09
32,166.234
34,170.187
36,173.966
38,177.589
40,181.064
42,184.407
44,187.625
46,190.728
48,193.724
50,196.62
52,199.424
54,202.14
56,204.774
58,207.334
60,209.819
62,212.239
64,214.593
66,216.888
68,219.129
70,221.316
72,223.452
74,225.541
76,227.589
78,229.594
80,231.559
82,233.487
84,235.38
86,237.238
88,239.065
90,240.86
92,242.624
94,244.36
96,246.065
98,247.744
100,249.394
102,251.019
104,252.614
106,254.185
108,255.731
110,257.254
112,258.751
114,260.225
116,261.676
118,263.106
120,264.516
122,265.906
124,267.275
126,268.63
128,269.963
130,271.282
132,272.586
134,273.872
136,275.145
138,276.403
140,277.65
142,278.881
144,280.102
146,281.309
148,282.505
150,283.691
152,284.865
154,286.027
156,287.181
158,288.325
160,289.457
162,290.583
164,291.697
166,292.802
168,293.901
170,294.99
172,296.068
174,297.14
176,298.205
178,299.258
180,300.308
182,301.349
184,302.378
186,303.405
188,304.422
190,305.43
192,306.433
194,307.429
196,308.413
198,309.395
200,310.369
202,311.332
204,312.292
206,313.246
208,314.184
210,315.126
212,316.057
214,316.975
216,317.894
218,318.805
220,319.7
222,320.599
224,321.488
226,322.362
228,323.241
230,324.108
232,324.96
234,325.818
236,326.665
238,327.493
240,328.33
242,329.157
244,329.962
246,330.777
248,331.583
250,332.366
252,333.16
254,333.945
256,334.705
258,335.478
260,336.24
262,336.977
264,337.73
266,338.472
268,339.185
270,339.918
272,340.639
274,341.331
276,342.043
278,342.743
280,343.411
282,344.104
284,344.784
286,345.43
288,346.104
290,346.764
292,347.39
294,348.043
296,348.685
298,349.29
300,349.925
302,350.547
304,351.134
306,351.751
308,352.356
310,352.923
312,353.525
314,354.11
316,354.661
318,355.246
320,355.816
322,356.351
324,356.919
326,357.475
328,357.994
330,358.548
332,359.089
334,359.594
336,360.134
338,360.661
340,361.154
342,361.681
344,362.194
346,362.674
348,363.19
350,363.69
352,364.16
354,364.663
356,365.152
358,365.612
360,366.104
362,366.582
364,367.031
366,367.512
368,367.981
370,368.423
372,368.893
374,369.351
376,369.784
378,370.244
380,370.693
382,371.119
384,371.568
386,372.008
388,372.427
390,372.868
392,373.299
394,373.71
396,374.141
398,374.563
400,374.967
402,375.388
404,375.802
406,376.199
408,376.611
410,377.016
412,377.406
414,377.809
416,378.205
418,378.587
420,378.981
422,379.368
424,379.743
426,380.127
428,380.505
430,380.873
432,381.248
434,381.617
436,381.977
438,382.342
440,382.702
442,383.055
444,383.411
446,383.762
448,384.106
450,384.453
452,384.795
454,385.131
456,385.468
458,385.802
460,386.13
462,386.459
464,386.783
466,387.103
468,387.423
470,387.74
472,388.052
474,388.363
476,388.671
478,388.976
480,389.28
482,389.58
484,389.876
486,390.172
488,390.465
490,390.755
492,391.043
494,391.328
496,391.611
498,391.892
500,392.171
502,392.447
504,392.721
506,392.993
508,393.263
510,393.531
512,393.797
514,394.061
516,394.323
518,394.582
520,394.841
522,395.097
524,395.351
526,395.604
528,395.854
530,396.103
532,396.351
534,396.596
536,396.84
538,397.083
540,397.323
542,397.562
544,397.799
546,398.036
548,398.271
550,398.503
552,398.734
554,398.964
556,399.193
558,399.421
560,399.647
562,399.871
564,400.095
566,400.316
568,400.537
570,400.756
572,400.974
574,401.191
576,401.406
578,401.622
580,401.834
582,402.046
584,402.258
586,402.468
588,402.677
590,402.885
592,403.092
594,403.297
596,403.502
598,403.706
600,403.909
602,404.11
604,404.311
606,404.511
608,404.71
610,404.908
612,405.105
614,405.302
616,405.497
618,405.692
620,405.886
622,406.079
624,406.271
626,406.463
628,406.653
630,406.844
632,407.033
634,407.222
636,407.409
638,407.597
640,407.783
642,407.969
644,408.154
646,408.339
648,408.522
650,408.706
652,408.888
654,409.071
656,409.253
658,409.434
660,409.614
662,409.795
664,409.974
666,410.153
668,410.332
670,410.51
672,410.687
674,410.865
676,411.041
678,411.218
680,411.393
682,411.569
684,411.744
686,411.919
688,412.093
690,412.267
692,412.441
694,412.614
696,412.787
698,412.96
700,413.132
702,413.304
704,413.476
706,413.647
708,413.819
710,413.99
712,414.161
714,414.331
716,414.501
718,414.672
720,414.842
722,415.012
724,415.181
726,415.351
728,415.52
730,415.689
732,415.859
734,416.028
736,416.197
738,416.365
740,416.534
742,416.702
744,416.871
746,417.04
748,417.208
750,417.377
752,417.545
754,417.714
756,417.882
758,418.05
760,418.219
762,418.388
764,418.556
766,418.725
768,418.893
770,419.062
772,419.23
774,419.4
776,419.569
778,419.738
780,419.907
782,420.076
784,420.246
786,420.415
788,420.585
790,420.755
792,420.925
794,421.096
796,421.266
798,421.437
800,421.608
802,421.779
804,421.95
806,422.122
808,422.294
810,422.466
812,422.638
814,422.811
816,422.984
818,423.157
820,423.331
822,423.504
824,423.678
826,423.852
828,424.027
830,424.201
832,424.377
834,424.552
836,424.728
838,424.904
840,425.08
842,425.257
844,425.434
846,425.611
848,425.789
850,425.967
852,426.146
854,426.324
856,426.503
858,426.682
860,426.862
862,427.042
864,427.222
866,427.402
868,427.583
870,427.764
872,427.945
874,428.126
876,428.308
878,428.49
880,428.672
882,428.854
884,429.037
886,429.22
888,429.403
890,429.586
892,429.769
894,429.952
896,430.135
898,430.319
900,430.502
902,430.686
904,430.87
906,431.054
908,431.237
910,431.421
912,431.605
914,431.789
916,431.972
918,432.155
920,432.339
922,432.522
924,432.705
926,432.888
928,433.07
930,433.253
932,433.435
934,433.617
936,433.799
938,433.98
940,434.162
942,434.342
944,434.523
946,434.703
948,434.883
950,435.062
952,435.241
954,435.42
956,435.598
958,435.776
960,435.954
962,436.13
964,436.307
966,436.483
968,436.658
970,436.833
972,437.008
974,437.181
976,437.355
978,437.528
980,437.7
982,437.872
984,438.043
986,438.214
988,438.384
990,438.554
992,438.723
994,438.892
996,439.06
998,439.227
1000,439.394
1000,439.394
1000,439.394
1010,440.219
1010,440.219
1010,440.219
1010,440.219
1010,440.219
1020,441.028
1020,441.028
1020,441.028
1020,441.028
1020,441.028
1030,441.823
1030,441.823
1030,441.823
1030,441.823
1030,441.823
1040,442.603
1040,442.603
1040,442.603
1040,442.603
1040,442.603
1050,443.367
1050,443.367
1050,443.367
1050,443.367
1050,443.367
1060,444.117
1060,444.117
1060,444.117
1060,444.117
1060,444.117
1070,444.851
1070,444.851
1070,444.851
1070,444.851
1070,444.851
1080,445.571
1080,445.571
1080,445.571
1080,445.571
1080,445.571
1090,446.276
1090,446.276
1090,446.276
1090,446.276
1090,446.276
1100,446.967
1100,446.967
1100,446.967
1100,446.967
1100,446.967
1110,447.643
1110,447.643
1110,447.643
1110,447.643
1110,447.643
1120,448.306
1120,448.306
1120,448.306
1120,448.306
1120,448.306
1130,448.954
1130,448.954
1130,448.954
1130,448.954
1130,448.954
1140,449.589
1140,449.589
1140,449.589
1140,449.589
1140,449.589
1150,450.212
1150,450.212
1150,450.212
1150,450.212
1150,450.212
1160,450.821
1160,450.821
1160,450.821
1160,450.821
1160,450.821
1170,451.417
1170,451.417
1170,451.417
1170,451.417
1170,451.417
1180,452.001
1180,452.001
1180,452.001
1180,452.001
1180,452.001
1190,452.572
1190,452.572
1190,452.572
1190,452.572
1190,452.572
1200,453.131
1200,453.131
1200,453.131
1200,453.131
1200,453.131
1210,453.679
1210,453.679
1210,453.679
1210,453.679
1210,453.679
1220,454.215
1220,454.215
1220,454.215
1220,454.215
1220,454.215
1230,454.739
1230,454.739
1230,454.739
1230,454.739
1230,454.739
1240,455.253
1240,455.253
1240,455.253
1240,455.253
1240,455.253
1250,455.755
1250,455.755
1250,455.755
1250,455.755
1250,455.755
1260,456.247
1260,456.247
1260,456.247
1260,456.247
1260,456.247
1270,456.728
1270,456.728
1270,456.728
1270,456.728
1270,456.728
1280,457.199
1280,457.199
1280,457.199
1280,457.199
1280,457.199
1290,457.66
1290,457.66
1290,457.66
1290,457.66
1290,457.66
1300,458.111
1300,458.111
1300,458.111
1300,458.111
1300,458.111
1310,458.552
1310,458.552
1310,458.552
1310,458.552
1310,458.552
1320,458.984
1320,458.984
1320,458.984
1320,458.984
1320,458.984
1330,459.406
1330,459.406
1330,459.406
1330,459.406
1330,459.406
1340,459.82
1340,459.82
1340,459.82
1340,459.82
1340,459.82
1350,460.224
1350,460.224
1350,460.224
1350,460.224
1350,460.224
1360,460.62
1360,460.62
1360,460.62
1360,460.62
1360,460.62
1370,461.007
1370,461.007
1370,461.007
1370,461.007
1370,461.007
1380,461.386
1380,461.386
1380,461.386
1380,461.386
1380,461.386
1390,461.757
1390,461.757
1390,461.757
1390,461.757
1390,461.757
1400,462.119
1400,462.119
1400,462.119
1400,462.119
1400,462.119
1410,462.474
1410,462.474
1410,462.474
1410,462.474
1410,462.474
1420,462.821
1420,462.821
1420,462.821
1420,462.821
1420,462.821
1430,463.16
1430,463.16
1430,463.16
1430,463.16
1430,463.16
1440,463.492
1440,463.492
1440,463.492
1440,463.492
1440,463.492
1450,463.817
1450,463.817
1450,463.817
1450,463.817
1450,463.817
1460,464.135
1460,464.135
1460,464.135
1460,464.135
1460,464.135
1470,464.446
1470,464.446
1470,464.446
1470,464.446
1470,464.446
1480,464.75
1480,464.75
1480,464.75
1480,464.75
1480,464.75
1490,465.047
1490,465.047
1490,465.047
1490,465.047
1490,465.047
1500,465.338
1500,465.338
1500,465.338
1500,465.338
1500,465.338
1510,465.622
1510,465.622
1510,465.622
1510,465.622
1510,465.622
1520,465.901
1520,465.901
1520,465.901
1520,465.901
1520,465.901
1530,466.172
1530,466.172
1530,466.172
1530,466.172
1530,466.172
1540,466.439
1540,466.439
1540,466.439
1540,466.439
1540,466.439
1550,466.699
1550,466.699
1550,466.699
1550,466.699
1550,466.699
1560,466.953
1560,466.953
1560,466.953
1560,466.953
1560,466.953
1570,467.203
1570,467.203
1570,467.203
1570,467.203
1570,467.203
1580,467.446
1580,467.446
1580,467.446
1580,467.446
1580,467.446
1590,467.684
1590,467.684
1590,467.684
1590,467.684
1590,467.684
1600,467.917
1600,467.917
1600,467.917
1600,467.917
1600,467.917
1610,468.144
1610,468.144
1610,468.144
1610,468.144
1610,468.144
1620,468.368
1620,468.368
1620,468.368
1620,468.368
1620,468.368
1630,468.585
1630,468.585
1630,468.585
1630,468.585
1630,468.585
1640,468.798
1640,468.798
1640,468.798
1640,468.798
1640,468.798
1650,469.006
1650,469.006
1650,469.006
1650,469.006
1650,469.006
1660,469.21
1660,469.21
1660,469.21
1660,469.21
1660,469.21
1670,469.409
1670,469.409
1670,469.409
1670,469.409
1670,469.409
1680,469.604
1680,469.604
1680,469.604
1680,469.604
1680,469.604
1690,469.794
1690,469.794
1690,469.794
1690,469.794
1690,469.794
1700,469.981
1700,469.981
1700,469.981
1700,469.981
1700,469.981
1710,470.162
1710,470.162
1710,470.162
1710,470.162
1710,470.162
1720,470.341
1720,470.341
1720,470.341
1720,470.341
1720,470.341
1730,470.514
1730,470.514
1730,470.514
1730,470.514
1730,470.514
1740,470.685
1740,470.685
1740,470.685
1740,470.685
1740,470.685
1750,470.851
1750,470.851
1750,470.851
1750,470.851
1750,470.851
1760,471.014
1760,471.014
1760,471.014
1760,471.014
1760,471.014
1770,471.173
1770,471.173
1770,471.173
1770,471.173
1770,471.173
1780,471.328
1780,471.328
1780,471.328
1780,471.328
1780,471.328
1790,471.481
1790,471.481
1790,471.481
1790,471.481
1790,471.481
1800,471.629
1800,471.629
1800,471.629