File: results/E_Glass/1Mass_DSC/E_Glass_linear_dsc_M_0_cone_BT.csv
# Time [s], Temperature [C]
0.000000000000000000e+00,25
2,25
4,25
6,25
8,25
10,25.0002
12,25.0014
14,25.0054
16,25.016
18,25.0392
20,25.0823
22,25.1535
24,25.2612
26,25.4132
28,25.6168
30,25.8777
32,26.2007
34,26.5896
36,27.0469
38,27.5741
40,28.1721
42,28.8408
44,29.5798
46,30.3878
48,31.2635
50,32.205
52,33.2105
54,34.2776
56,35.404
58,36.5872
60,37.825
62,39.1148
64,40.4539
66,41.8401
68,43.2707
70,44.7435
72,46.2561
74,47.8063
76,49.3917
78,51.0104
80,52.6603
82,54.3395
84,56.046
86,57.7779
88,59.5336
90,61.3114
92,63.1097
94,64.9269
96,66.7617
98,68.6124
100,70.4781
102,72.3572
104,74.2486
106,76.1512
108,78.0639
110,79.9856
112,81.9151
114,83.8519
116,85.795
118,87.7434
120,89.6964
122,91.6531
124,93.6129
126,95.5752
128,97.5391
130,99.5043
132,101.47
134,103.436
136,105.401
138,107.366
140,109.329
142,111.29
144,113.25
146,115.206
148,117.16
150,119.11
152,121.057
154,123
156,124.939
158,126.873
160,128.803
162,130.728
164,132.647
166,134.562
168,136.47
170,138.374
172,140.271
174,142.162
176,144.047
178,145.926
180,147.798
182,149.664
184,151.523
186,153.375
188,155.22
190,157.058
192,158.889
194,160.713
196,162.53
198,164.339
200,166.141
202,167.935
204,169.721
206,171.5
208,173.272
210,175.035
212,176.791
214,178.539
216,180.279
218,182.011
220,183.736
222,185.452
224,187.16
226,188.86
228,190.552
230,192.236
232,193.911
234,195.579
236,197.238
238,198.889
240,200.531
242,202.165
244,203.791
246,205.409
248,207.018
250,208.618
252,210.21
254,211.794
256,213.369
258,214.935
260,216.493
262,218.043
264,219.583
266,221.115
268,222.638
270,224.153
272,225.659
274,227.156
276,228.644
278,230.123
280,231.594
282,233.055
284,234.508
286,235.952
288,237.386
290,238.812
292,240.229
294,241.637
296,243.035
298,244.425
300,245.805
302,247.176
304,248.538
306,249.891
308,251.234
310,252.568
312,253.893
314,255.208
316,256.514
318,257.81
320,259.097
322,260.373
324,261.64
326,262.898
328,264.145
330,265.382
332,266.609
334,267.826
336,269.033
338,270.23
340,271.416
342,272.591
344,273.756
346,274.91
348,276.053
350,277.186
352,278.307
354,279.417
356,280.517
358,281.604
360,282.681
362,283.745
364,284.798
366,285.84
368,286.869
370,287.887
372,288.893
374,289.886
376,290.867
378,291.836
380,292.792
382,293.736
384,294.668
386,295.586
388,296.492
390,297.385
392,298.266
394,299.133
396,299.987
398,300.828
400,301.656
402,302.471
404,303.273
406,304.062
408,304.837
410,305.6
412,306.349
414,307.085
416,307.808
418,308.518
420,309.215
422,309.9
424,310.571
426,311.229
428,311.875
430,312.509
432,313.13
434,313.738
436,314.335
438,314.919
440,315.492
442,316.052
444,316.602
446,317.14
448,317.667
450,318.183
452,318.688
454,319.183
456,319.667
458,320.141
460,320.606
462,321.061
464,321.506
466,321.942
468,322.37
470,322.788
472,323.199
474,323.601
476,323.995
478,324.381
480,324.76
482,325.132
484,325.497
486,325.855
488,326.206
490,326.551
492,326.891
494,327.224
496,327.552
498,327.874
500,328.191
502,328.504
504,328.811
506,329.114
508,329.413
510,329.707
512,329.997
514,330.284
516,330.567
518,330.847
520,331.123
522,331.396
524,331.666
526,331.934
528,332.198
530,332.461
532,332.72
534,332.978
536,333.234
538,333.487
540,333.739
542,333.989
544,334.237
546,334.484
548,334.729
550,334.973
552,335.215
554,335.457
556,335.698
558,335.937
560,336.176
562,336.414
564,336.651
566,336.888
568,337.124
570,337.359
572,337.595
574,337.829
576,338.064
578,338.298
580,338.532
582,338.766
584,339
586,339.234
588,339.468
590,339.702
592,339.936
594,340.17
596,340.404
598,340.639
600,340.874
602,341.11
604,341.345
606,341.582
608,341.818
610,342.056
612,342.293
614,342.532
616,342.771
618,343.01
620,343.25
622,343.491
624,343.733
626,343.975
628,344.218
630,344.462
632,344.707
634,344.953
636,345.199
638,345.447
640,345.695
642,345.945
644,346.195
646,346.447
648,346.699
650,346.953
652,347.208
654,347.464
656,347.721
658,347.979
660,348.239
662,348.499
664,348.761
666,349.025
668,349.289
670,349.555
672,349.822
674,350.091
676,350.361
678,350.633
680,350.906
682,351.18
684,351.456
686,351.733
688,352.013
690,352.293
692,352.575
694,352.859
696,353.145
698,353.432
700,353.721
702,354.012
704,354.304
706,354.598
708,354.894
710,355.192
712,355.492
714,355.794
716,356.097
718,356.403
720,356.71
722,357.02
724,357.331
726,357.645
728,357.96
730,358.278
732,358.598
734,358.92
736,359.244
738,359.57
740,359.899
742,360.23
744,360.563
746,360.898
748,361.236
750,361.576
752,361.918
754,362.263
756,362.61
758,362.959
760,363.311
762,363.666
764,364.022
766,364.382
768,364.743
770,365.108
772,365.474
774,365.844
776,366.215
778,366.59
780,366.967
782,367.346
784,367.728
786,368.112
788,368.499
790,368.889
792,369.281
794,369.675
796,370.072
798,370.471
800,370.873
802,371.277
804,371.683
806,372.092
808,372.503
810,372.917
812,373.332
814,373.75
816,374.169
818,374.591
820,375.014
822,375.44
824,375.867
826,376.296
828,376.726
830,377.158
832,377.592
834,378.027
836,378.463
838,378.9
840,379.338
842,379.777
844,380.216
846,380.656
848,381.097
850,381.538
852,381.979
854,382.421
856,382.862
858,383.303
860,383.743
862,384.184
864,384.623
866,385.061
868,385.499
870,385.936
872,386.371
874,386.805
876,387.237
878,387.668
880,388.098
882,388.525
884,388.951
886,389.374
888,389.795
890,390.215
892,390.632
894,391.046
896,391.459
898,391.869
900,392.276
902,392.681
904,393.084
906,393.484
908,393.881
910,394.277
912,394.669
914,395.059
916,395.447
918,395.832
920,396.215
922,396.595
924,396.973
926,397.349
928,397.722
930,398.094
932,398.462
934,398.829
936,399.194
938,399.556
940,399.917
942,400.275
944,400.632
946,400.986
948,401.339
950,401.69
952,402.038
954,402.385
956,402.731
958,403.074
960,403.416
962,403.756
964,404.094
966,404.431
968,404.766
970,405.099
972,405.431
974,405.761
976,406.09
978,406.417
980,406.742
982,407.066
984,407.388
986,407.709
988,408.029
990,408.347
992,408.663
994,408.979
996,409.292
998,409.605
1000,409.915
1000,409.915
1000,409.915
1010,411.449
1010,411.449
1010,411.449
1010,411.449
1010,411.449
1020,412.949
1020,412.949
1020,412.949
1020,412.949
1020,412.949
1030,414.416
1030,414.416
1030,414.416
1030,414.416
1030,414.416
1040,415.852
1040,415.852
1040,415.852
1040,415.852
1040,415.852
1050,417.257
1050,417.257
1050,417.257
1050,417.257
1050,417.257
1060,418.633
1060,418.633
1060,418.633
1060,418.633
1060,418.633
1070,419.979
1070,419.979
1070,419.979
1070,419.979
1070,419.979
1080,421.297
1080,421.297
1080,421.297
1080,421.297
1080,421.297
1090,422.587
1090,422.587
1090,422.587
1090,422.587
1090,422.587
1100,423.849
1100,423.849
1100,423.849
1100,423.849
1100,423.849
1110,425.085
1110,425.085
1110,425.085
1110,425.085
1110,425.085
1120,426.295
1120,426.295
1120,426.295
1120,426.295
1120,426.295
1130,427.48
1130,427.48
1130,427.48
1130,427.48
1130,427.48
1140,428.639
1140,428.639
1140,428.639
1140,428.639
1140,428.639
1150,429.774
1150,429.774
1150,429.774
1150,429.774
1150,429.774
1160,430.885
1160,430.885
1160,430.885
1160,430.885
1160,430.885
1170,431.973
1170,431.973
1170,431.973
1170,431.973
1170,431.973
1180,433.037
1180,433.037
1180,433.037
1180,433.037
1180,433.037
1190,434.079
1190,434.079
1190,434.079
1190,434.079
1190,434.079
1200,435.098
1200,435.098
1200,435.098
1200,435.098
1200,435.098
1210,436.096
1210,436.096
1210,436.096
1210,436.096
1210,436.096
1220,437.073
1220,437.073
1220,437.073
1220,437.073
1220,437.073
1230,438.028
1230,438.028
1230,438.028
1230,438.028
1230,438.028
1240,438.964
1240,438.964
1240,438.964
1240,438.964
1240,438.964
1250,439.879
1250,439.879
1250,439.879
1250,439.879
1250,439.879
1260,440.775
1260,440.775
1260,440.775
1260,440.775
1260,440.775
1270,441.651
1270,441.651
1270,441.651
1270,441.651
1270,441.651
1280,442.509
1280,442.509
1280,442.509
1280,442.509
1280,442.509
1290,443.348
1290,443.348
1290,443.348
1290,443.348
1290,443.348
1300,444.17
1300,444.17
1300,444.17
1300,444.17
1300,444.17
1310,444.973
1310,444.973
1310,444.973
1310,444.973
1310,444.973
1320,445.759
1320,445.759
1320,445.759
1320,445.759
1320,445.759
1330,446.528
1330,446.528
1330,446.528
1330,446.528
1330,446.528
1340,447.281
1340,447.281
1340,447.281
1340,447.281
1340,447.281
1350,448.017
1350,448.017
1350,448.017
1350,448.017
1350,448.017
1360,448.738
1360,448.738
1360,448.738
1360,448.738
1360,448.738
1370,449.442
1370,449.442
1370,449.442
1370,449.442
1370,449.442
1380,450.132
1380,450.132
1380,450.132
1380,450.132
1380,450.132
1390,450.806
1390,450.806
1390,450.806
1390,450.806
1390,450.806
1400,451.466
1400,451.466
1400,451.466
1400,451.466
1400,451.466
1410,452.111
1410,452.111
1410,452.111
1410,452.111
1410,452.111
1420,452.743
1420,452.743
1420,452.743
1420,452.743
1420,452.743
1430,453.36
1430,453.36
1430,453.36
1430,453.36
1430,453.36
1440,453.964
1440,453.964
1440,453.964
1440,453.964
1440,453.964
1450,454.555
1450,454.555
1450,454.555
1450,454.555
1450,454.555
1460,455.133
1460,455.133
1460,455.133
1460,455.133
1460,455.133
1470,455.699
1470,455.699
1470,455.699
1470,455.699
1470,455.699
1480,456.252
1480,456.252
1480,456.252
1480,456.252
1480,456.252
1490,456.792
1490,456.792
1490,456.792
1490,456.792
1490,456.792
1500,457.321
1500,457.321
1500,457.321
1500,457.321
1500,457.321
1510,457.839
1510,457.839
1510,457.839
1510,457.839
1510,457.839
1520,458.345
1520,458.345
1520,458.345
1520,458.345
1520,458.345
1530,458.84
1530,458.84
1530,458.84
1530,458.84
1530,458.84
1540,459.324
1540,459.324
1540,459.324
1540,459.324
1540,459.324
1550,459.797
1550,459.797
1550,459.797
1550,459.797
1550,459.797
1560,460.26
1560,460.26
1560,460.26
1560,460.26
1560,460.26
1570,460.713
1570,460.713
1570,460.713
1570,460.713
1570,460.713
1580,461.155
1580,461.155
1580,461.155
1580,461.155
1580,461.155
1590,461.588
1590,461.588
1590,461.588
1590,461.588
1590,461.588
1600,462.012
1600,462.012
1600,462.012
1600,462.012
1600,462.012
1610,462.426
1610,462.426
1610,462.426
1610,462.426
1610,462.426
1620,462.831
1620,462.831
1620,462.831
1620,462.831
1620,462.831
1630,463.226
1630,463.226
1630,463.226
1630,463.226
1630,463.226
1640,463.614
1640,463.614
1640,463.614
1640,463.614
1640,463.614
1650,463.992
1650,463.992
1650,463.992
1650,463.992
1650,463.992
1660,464.362
1660,464.362
1660,464.362
1660,464.362
1660,464.362
1670,464.724
1670,464.724
1670,464.724
1670,464.724
1670,464.724
1680,465.078
1680,465.078
1680,465.078
1680,465.078
1680,465.078
1690,465.425
1690,465.425
1690,465.425
1690,465.425
1690,465.425
1700,465.763
1700,465.763
1700,465.763
1700,465.763
1700,465.763
1710,466.094
1710,466.094
1710,466.094
1710,466.094
1710,466.094
1720,466.418
1720,466.418
1720,466.418
1720,466.418
1720,466.418
1730,466.734
1730,466.734
1730,466.734
1730,466.734
1730,466.734
1740,467.043
1740,467.043
1740,467.043
1740,467.043
1740,467.043
1750,467.346
1750,467.346
1750,467.346
1750,467.346
1750,467.346
1760,467.641
1760,467.641
1760,467.641
1760,467.641
1760,467.641
1770,467.931
1770,467.931
1770,467.931
1770,467.931
1770,467.931
1780,468.213
1780,468.213
1780,468.213
1780,468.213
1780,468.213
1790,468.49
1790,468.49
1790,468.49
1790,468.49
1790,468.49
1800,468.76
1800,468.76
1800,468.76