File: results/E_Glass/1Mass_DSC/E_Glass_linear_dsc_M_0_cone_Mass.csv
# Time [s], Mass [Kg]
0.000000000000000000e+00,1
2,1
4,1
6,1
8,1
10,1
12,1
14,1
16,1
18,1
20,1
22,1
24,1
26,1
28,1
30,1
32,1
34,1
36,1
38,1
40,1
42,1
44,1
46,1
48,1
50,1
52,1
54,1
56,1
58,1
60,1
62,1
64,1
66,1
68,1
70,1
72,1
74,1
76,1
78,1
80,1
82,1
84,0.999999
86,0.999999
88,0.999999
90,0.999999
92,0.999999
94,0.999999
96,0.999998
98,0.999998
100,0.999998
102,0.999997
104,0.999997
106,0.999996
108,0.999996
110,0.999995
112,0.999995
114,0.999994
116,0.999993
118,0.999992
120,0.999991
122,0.99999
124,0.999988
126,0.999987
128,0.999985
130,0.999983
132,0.999981
134,0.999979
136,0.999976
138,0.999974
140,0.999971
142,0.999967
144,0.999964
146,0.99996
148,0.999955
150,0.999951
152,0.999946
154,0.99994
156,0.999934
158,0.999927
160,0.99992
162,0.999912
164,0.999904
166,0.999894
168,0.999884
170,0.999874
172,0.999862
174,0.99985
176,0.999836
178,0.999822
180,0.999806
182,0.999789
184,0.999771
186,0.999751
188,0.99973
190,0.999708
192,0.999684
194,0.999658
196,0.999631
198,0.999601
200,0.99957
202,0.999536
204,0.9995
206,0.999462
208,0.999421
210,0.999377
212,0.999331
214,0.999281
216,0.999229
218,0.999173
220,0.999114
222,0.999051
224,0.998984
226,0.998914
228,0.998839
230,0.99876
232,0.998676
234,0.998587
236,0.998494
238,0.998395
240,0.998291
242,0.998181
244,0.998066
246,0.997944
248,0.997816
250,0.997681
252,0.997539
254,0.99739
256,0.997234
258,0.99707
260,0.996899
262,0.996719
264,0.996531
266,0.996334
268,0.996128
270,0.995912
272,0.995688
274,0.995453
276,0.995209
278,0.994954
280,0.994689
282,0.994412
284,0.994125
286,0.993827
288,0.993516
290,0.993194
292,0.99286
294,0.992513
296,0.992154
298,0.991782
300,0.991397
302,0.990998
304,0.990586
306,0.990161
308,0.989721
310,0.989268
312,0.9888
314,0.988318
316,0.987821
318,0.98731
320,0.986783
322,0.986242
324,0.985685
326,0.985113
328,0.984526
330,0.983923
332,0.983305
334,0.98267
336,0.982021
338,0.981355
340,0.980674
342,0.979976
344,0.979263
346,0.978534
348,0.977789
350,0.977028
352,0.976251
354,0.975458
356,0.974649
358,0.973825
360,0.972985
362,0.972129
364,0.971257
366,0.97037
368,0.969467
370,0.968549
372,0.967616
374,0.966668
376,0.965705
378,0.964726
380,0.963733
382,0.962726
384,0.961704
386,0.960668
388,0.959618
390,0.958553
392,0.957476
394,0.956384
396,0.95528
398,0.954162
400,0.953032
402,0.951889
404,0.950733
406,0.949565
408,0.948386
410,0.947195
412,0.945992
414,0.944778
416,0.943554
418,0.942319
420,0.941073
422,0.939818
424,0.938553
426,0.937278
428,0.935994
430,0.934701
432,0.9334
434,0.93209
436,0.930772
438,0.929447
440,0.928114
442,0.926775
444,0.925428
446,0.924075
448,0.922716
450,0.921351
452,0.91998
454,0.918604
456,0.917223
458,0.915837
460,0.914447
462,0.913053
464,0.911656
466,0.910254
468,0.90885
470,0.907442
472,0.906032
474,0.90462
476,0.903205
478,0.901789
480,0.900371
482,0.898952
484,0.897531
486,0.896111
488,0.894689
490,0.893267
492,0.891845
494,0.890424
496,0.889003
498,0.887582
500,0.886163
502,0.884744
504,0.883327
506,0.881911
508,0.880497
510,0.879085
512,0.877675
514,0.876268
516,0.874862
518,0.87346
520,0.87206
522,0.870663
524,0.86927
526,0.867879
528,0.866492
530,0.865109
532,0.863729
534,0.862353
536,0.860981
538,0.859614
540,0.85825
542,0.856891
544,0.855536
546,0.854186
548,0.85284
550,0.851499
552,0.850164
554,0.848833
556,0.847507
558,0.846186
560,0.84487
562,0.84356
564,0.842255
566,0.840956
568,0.839662
570,0.838373
572,0.837091
574,0.835814
576,0.834543
578,0.833277
580,0.832018
582,0.830765
584,0.829517
586,0.828276
588,0.827041
590,0.825812
592,0.824589
594,0.823373
596,0.822163
598,0.820959
600,0.819762
602,0.818571
604,0.817387
606,0.816209
608,0.815038
610,0.813874
612,0.812716
614,0.811565
616,0.810421
618,0.809283
620,0.808153
622,0.807029
624,0.805913
626,0.804803
628,0.8037
630,0.802605
632,0.801516
634,0.800435
636,0.79936
638,0.798293
640,0.797234
642,0.796181
644,0.795136
646,0.794098
648,0.793068
650,0.792045
652,0.79103
654,0.790022
656,0.789022
658,0.788029
660,0.787044
662,0.786067
664,0.785098
666,0.784136
668,0.783182
670,0.782236
672,0.781298
674,0.780368
676,0.779446
678,0.778532
680,0.777627
682,0.776729
684,0.77584
686,0.774958
688,0.774086
690,0.773221
692,0.772365
694,0.771517
696,0.770678
698,0.769848
700,0.769026
702,0.768213
704,0.767408
706,0.766612
708,0.765826
710,0.765047
712,0.764278
714,0.763518
716,0.762767
718,0.762025
720,0.761293
722,0.760569
724,0.759855
726,0.75915
728,0.758454
730,0.757768
732,0.757091
734,0.756424
736,0.755766
738,0.755118
740,0.75448
742,0.753852
744,0.753233
746,0.752624
748,0.752025
750,0.751436
752,0.750857
754,0.750288
756,0.749729
758,0.74918
760,0.748642
762,0.748113
764,0.747595
766,0.747088
768,0.74659
770,0.746103
772,0.745626
774,0.74516
776,0.744704
778,0.744258
780,0.743823
782,0.743399
784,0.742985
786,0.742581
788,0.742188
790,0.741805
792,0.741433
794,0.741071
796,0.74072
798,0.740379
800,0.740049
802,0.739728
804,0.739418
806,0.739119
808,0.738829
810,0.73855
812,0.73828
814,0.738021
816,0.737771
818,0.737531
820,0.737301
822,0.73708
824,0.736869
826,0.736667
828,0.736474
830,0.73629
832,0.736115
834,0.735948
836,0.73579
838,0.73564
840,0.735499
842,0.735365
844,0.735239
846,0.73512
848,0.735009
850,0.734904
852,0.734807
854,0.734716
856,0.734631
858,0.734552
860,0.734479
862,0.734412
864,0.734349
866,0.734292
868,0.73424
870,0.734192
872,0.734148
874,0.734109
876,0.734073
878,0.73404
880,0.734011
882,0.733985
884,0.733962
886,0.733941
888,0.733922
890,0.733906
892,0.733892
894,0.733879
896,0.733868
898,0.733859
900,0.733851
902,0.733844
904,0.733838
906,0.733832
908,0.733828
910,0.733824
912,0.733821
914,0.733819
916,0.733817
918,0.733815
920,0.733814
922,0.733813
924,0.733812
926,0.733811
928,0.73381
930,0.73381
932,0.73381
934,0.733809
936,0.733809
938,0.733809
940,0.733809
942,0.733809
944,0.733809
946,0.733809
948,0.733809
950,0.733809
952,0.733809
954,0.733809
956,0.733809
958,0.733809
960,0.733809
962,0.733809
964,0.733809
966,0.733809
968,0.733809
970,0.733809
972,0.733809
974,0.733809
976,0.733809
978,0.733809
980,0.733809
982,0.733809
984,0.733809
986,0.733809
988,0.733809
990,0.733809
992,0.733809
994,0.733809
996,0.733809
998,0.733809
1000,0.733809
1000,0.733809
1000,0.733809
1010,0.733809
1010,0.733809
1010,0.733809
1010,0.733809
1010,0.733809
1020,0.733809
1020,0.733809
1020,0.733809
1020,0.733809
1020,0.733809
1030,0.733809
1030,0.733809
1030,0.733809
1030,0.733809
1030,0.733809
1040,0.733809
1040,0.733809
1040,0.733809
1040,0.733809
1040,0.733809
1050,0.733809
1050,0.733809
1050,0.733809
1050,0.733809
1050,0.733809
1060,0.733809
1060,0.733809
1060,0.733809
1060,0.733809
1060,0.733809
1070,0.733809
1070,0.733809
1070,0.733809
1070,0.733809
1070,0.733809
1080,0.733809
1080,0.733809
1080,0.733809
1080,0.733809
1080,0.733809
1090,0.733809
1090,0.733809
1090,0.733809
1090,0.733809
1090,0.733809
1100,0.733809
1100,0.733809
1100,0.733809
1100,0.733809
1100,0.733809
1110,0.733809
1110,0.733809
1110,0.733809
1110,0.733809
1110,0.733809
1120,0.733809
1120,0.733809
1120,0.733809
1120,0.733809
1120,0.733809
1130,0.733809
1130,0.733809
1130,0.733809
1130,0.733809
1130,0.733809
1140,0.733809
1140,0.733809
1140,0.733809
1140,0.733809
1140,0.733809
1150,0.733809
1150,0.733809
1150,0.733809
1150,0.733809
1150,0.733809
1160,0.733809
1160,0.733809
1160,0.733809
1160,0.733809
1160,0.733809
1170,0.733809
1170,0.733809
1170,0.733809
1170,0.733809
1170,0.733809
1180,0.733809
1180,0.733809
1180,0.733809
1180,0.733809
1180,0.733809
1190,0.733809
1190,0.733809
1190,0.733809
1190,0.733809
1190,0.733809
1200,0.733809
1200,0.733809
1200,0.733809
1200,0.733809
1200,0.733809
1210,0.733809
1210,0.733809
1210,0.733809
1210,0.733809
1210,0.733809
1220,0.733809
1220,0.733809
1220,0.733809
1220,0.733809
1220,0.733809
1230,0.733809
1230,0.733809
1230,0.733809
1230,0.733809
1230,0.733809
1240,0.733809
1240,0.733809
1240,0.733809
1240,0.733809
1240,0.733809
1250,0.733809
1250,0.733809
1250,0.733809
1250,0.733809
1250,0.733809
1260,0.733809
1260,0.733809
1260,0.733809
1260,0.733809
1260,0.733809
1270,0.733809
1270,0.733809
1270,0.733809
1270,0.733809
1270,0.733809
1280,0.733809
1280,0.733809
1280,0.733809
1280,0.733809
1280,0.733809
1290,0.733809
1290,0.733809
1290,0.733809
1290,0.733809
1290,0.733809
1300,0.733809
1300,0.733809
1300,0.733809
1300,0.733809
1300,0.733809
1310,0.733809
1310,0.733809
1310,0.733809
1310,0.733809
1310,0.733809
1320,0.733809
1320,0.733809
1320,0.733809
1320,0.733809
1320,0.733809
1330,0.733809
1330,0.733809
1330,0.733809
1330,0.733809
1330,0.733809
1340,0.733809
1340,0.733809
1340,0.733809
1340,0.733809
1340,0.733809
1350,0.733809
1350,0.733809
1350,0.733809
1350,0.733809
1350,0.733809
1360,0.733809
1360,0.733809
1360,0.733809
1360,0.733809
1360,0.733809
1370,0.733809
1370,0.733809
1370,0.733809
1370,0.733809
1370,0.733809
1380,0.733809
1380,0.733809
1380,0.733809
1380,0.733809
1380,0.733809
1390,0.733809
1390,0.733809
1390,0.733809
1390,0.733809
1390,0.733809
1400,0.733809
1400,0.733809
1400,0.733809
1400,0.733809
1400,0.733809
1410,0.733809
1410,0.733809
1410,0.733809
1410,0.733809
1410,0.733809
1420,0.733809
1420,0.733809
1420,0.733809
1420,0.733809
1420,0.733809
1430,0.733809
1430,0.733809
1430,0.733809
1430,0.733809
1430,0.733809
1440,0.733809
1440,0.733809
1440,0.733809
1440,0.733809
1440,0.733809
1450,0.733809
1450,0.733809
1450,0.733809
1450,0.733809
1450,0.733809
1460,0.733809
1460,0.733809
1460,0.733809
1460,0.733809
1460,0.733809
1470,0.733809
1470,0.733809
1470,0.733809
1470,0.733809
1470,0.733809
1480,0.733809
1480,0.733809
1480,0.733809
1480,0.733809
1480,0.733809
1490,0.733809
1490,0.733809
1490,0.733809
1490,0.733809
1490,0.733809
1500,0.733809
1500,0.733809
1500,0.733809
1500,0.733809
1500,0.733809
1510,0.733809
1510,0.733809
1510,0.733809
1510,0.733809
1510,0.733809
1520,0.733809
1520,0.733809
1520,0.733809
1520,0.733809
1520,0.733809
1530,0.733809
1530,0.733809
1530,0.733809
1530,0.733809
1530,0.733809
1540,0.733809
1540,0.733809
1540,0.733809
1540,0.733809
1540,0.733809
1550,0.733809
1550,0.733809
1550,0.733809
1550,0.733809
1550,0.733809
1560,0.733809
1560,0.733809
1560,0.733809
1560,0.733809
1560,0.733809
1570,0.733809
1570,0.733809
1570,0.733809
1570,0.733809
1570,0.733809
1580,0.733809
1580,0.733809
1580,0.733809
1580,0.733809
1580,0.733809
1590,0.733809
1590,0.733809
1590,0.733809
1590,0.733809
1590,0.733809
1600,0.733809
1600,0.733809
1600,0.733809
1600,0.733809
1600,0.733809
1610,0.733809
1610,0.733809
1610,0.733809
1610,0.733809
1610,0.733809
1620,0.733809
1620,0.733809
1620,0.733809
1620,0.733809
1620,0.733809
1630,0.733809
1630,0.733809
1630,0.733809
1630,0.733809
1630,0.733809
1640,0.733809
1640,0.733809
1640,0.733809
1640,0.733809
1640,0.733809
1650,0.733809
1650,0.733809
1650,0.733809
1650,0.733809
1650,0.733809
1660,0.733809
1660,0.733809
1660,0.733809
1660,0.733809
1660,0.733809
1670,0.733809
1670,0.733809
1670,0.733809
1670,0.733809
1670,0.733809
1680,0.733809
1680,0.733809
1680,0.733809
1680,0.733809
1680,0.733809
1690,0.733809
1690,0.733809
1690,0.733809
1690,0.733809
1690,0.733809
1700,0.733809
1700,0.733809
1700,0.733809
1700,0.733809
1700,0.733809
1710,0.733809
1710,0.733809
1710,0.733809
1710,0.733809
1710,0.733809
1720,0.733809
1720,0.733809
1720,0.733809
1720,0.733809
1720,0.733809
1730,0.733809
1730,0.733809
1730,0.733809
1730,0.733809
1730,0.733809
1740,0.733809
1740,0.733809
1740,0.733809
1740,0.733809
1740,0.733809
1750,0.733809
1750,0.733809
1750,0.733809
1750,0.733809
1750,0.733809
1760,0.733809
1760,0.733809
1760,0.733809
1760,0.733809
1760,0.733809
1770,0.733809
1770,0.733809
1770,0.733809
1770,0.733809
1770,0.733809
1780,0.733809
1780,0.733809
1780,0.733809
1780,0.733809
1780,0.733809
1790,0.733809
1790,0.733809
1790,0.733809
1790,0.733809
1790,0.733809
1800,0.733809
1800,0.733809
1800,0.733809