File: results/E_Glass/1Mass_DSC/E_Glass_linear_dsc_M_0_cone_Bh.csv
# Time [s], Convective Heat Transfer Coefficient [W/m2K]
0.000000000000000000e+00,0.000000000000000000e+00
2,0.000000000000000000e+00
4,0.000000000000000000e+00
6,0.0191508
8,0.0456
10,0.0949818
12,0.168776
14,0.26601
16,0.383327
18,0.516418
20,0.66112
22,0.81381
24,0.971586
26,1.13217
28,1.29384
30,1.4553
32,1.61556
34,1.77394
36,1.92993
38,2.08315
40,2.23336
42,2.38041
44,2.5242
46,2.66469
48,2.80188
50,2.93577
52,3.06643
54,3.19391
56,3.31826
58,3.43957
60,3.55792
62,3.6734
64,3.78608
66,3.89605
68,4.00339
70,4.1082
72,4.21054
74,4.31051
76,4.40816
78,4.50359
80,4.59687
82,4.68807
84,4.77726
86,4.86449
88,4.94984
90,5.03336
92,5.11511
94,5.19516
96,5.27355
98,5.35033
100,5.42556
102,5.49928
104,5.57153
106,5.64238
108,5.71185
110,5.77998
112,5.84682
114,5.9124
116,5.97677
118,6.03995
120,6.10197
122,6.16288
124,6.2227
126,6.28146
128,6.3392
130,6.39593
132,6.4517
134,6.50652
136,6.56042
138,6.61342
140,6.66555
142,6.71683
144,6.76728
146,6.81693
148,6.86579
150,6.91389
152,6.96124
154,7.00786
156,7.05378
158,7.09899
160,7.14354
162,7.18742
164,7.23066
166,7.27327
168,7.31527
170,7.35666
172,7.39747
174,7.43771
176,7.47739
178,7.51652
180,7.55511
182,7.59318
184,7.63073
186,7.66779
188,7.70435
190,7.74043
192,7.77605
194,7.81119
196,7.84589
198,7.88014
200,7.91397
202,7.94736
204,7.98034
206,8.0129
208,8.04507
210,8.07684
212,8.10822
214,8.13923
216,8.16986
218,8.20013
220,8.23003
222,8.25959
224,8.2888
226,8.31766
228,8.34619
230,8.37439
232,8.40227
234,8.42983
236,8.45707
238,8.484
240,8.51063
242,8.53696
244,8.56299
246,8.58874
248,8.61419
250,8.63937
252,8.66427
254,8.68889
256,8.71325
258,8.73733
260,8.76116
262,8.78472
264,8.80803
266,8.83108
268,8.85389
270,8.87645
272,8.89876
274,8.92084
276,8.94267
278,8.96427
280,8.98565
282,9.00678
284,9.0277
286,9.04839
288,9.06885
290,9.0891
292,9.10913
294,9.12895
296,9.14855
298,9.16795
300,9.18713
302,9.20611
304,9.22488
306,9.24345
308,9.26182
310,9.27999
312,9.29796
314,9.31574
316,9.33332
318,9.3507
320,9.36789
322,9.38489
324,9.4017
326,9.41832
328,9.43476
330,9.451
332,9.46705
334,9.48292
336,9.49861
338,9.5141
340,9.52942
342,9.54455
344,9.55949
346,9.57425
348,9.58883
350,9.60323
352,9.61744
354,9.63147
356,9.64532
358,9.65899
360,9.67247
362,9.68578
364,9.6989
366,9.71184
368,9.7246
370,9.73718
372,9.74958
374,9.7618
376,9.77384
378,9.7857
380,9.79737
382,9.80887
384,9.82019
386,9.83133
388,9.84229
390,9.85307
392,9.86367
394,9.87409
396,9.88434
398,9.89441
400,9.9043
402,9.91402
404,9.92356
406,9.93292
408,9.94212
410,9.95114
412,9.95999
414,9.96867
416,9.97718
418,9.98552
420,9.9937
422,10.0017
424,10.0096
426,10.0172
428,10.0248
430,10.0321
432,10.0394
434,10.0464
436,10.0533
438,10.0601
440,10.0667
442,10.0732
444,10.0795
446,10.0857
448,10.0918
450,10.0977
452,10.1035
454,10.1092
456,10.1147
458,10.1202
460,10.1255
462,10.1306
464,10.1357
466,10.1407
468,10.1456
470,10.1503
472,10.155
474,10.1595
476,10.164
478,10.1684
480,10.1727
482,10.1769
484,10.181
486,10.185
488,10.189
490,10.1929
492,10.1967
494,10.2005
496,10.2041
498,10.2078
500,10.2113
502,10.2148
504,10.2183
506,10.2217
508,10.225
510,10.2283
512,10.2316
514,10.2348
516,10.2379
518,10.2411
520,10.2441
522,10.2472
524,10.2502
526,10.2532
528,10.2561
530,10.259
532,10.2619
534,10.2648
536,10.2676
538,10.2704
540,10.2732
542,10.276
544,10.2788
546,10.2815
548,10.2842
550,10.2869
552,10.2896
554,10.2923
556,10.2949
558,10.2976
560,10.3002
562,10.3028
564,10.3054
566,10.308
568,10.3106
570,10.3132
572,10.3158
574,10.3184
576,10.321
578,10.3236
580,10.3261
582,10.3287
584,10.3313
586,10.3338
588,10.3364
590,10.339
592,10.3415
594,10.3441
596,10.3466
598,10.3492
600,10.3518
602,10.3544
604,10.3569
606,10.3595
608,10.3621
610,10.3647
612,10.3673
614,10.3699
616,10.3725
618,10.3751
620,10.3777
622,10.3803
624,10.3829
626,10.3855
628,10.3882
630,10.3908
632,10.3935
634,10.3961
636,10.3988
638,10.4015
640,10.4042
642,10.4069
644,10.4096
646,10.4123
648,10.415
650,10.4178
652,10.4205
654,10.4233
656,10.426
658,10.4288
660,10.4316
662,10.4344
664,10.4372
666,10.4401
668,10.4429
670,10.4458
672,10.4486
674,10.4515
676,10.4544
678,10.4573
680,10.4602
682,10.4632
684,10.4661
686,10.4691
688,10.4721
690,10.475
692,10.4781
694,10.4811
696,10.4841
698,10.4872
700,10.4903
702,10.4933
704,10.4965
706,10.4996
708,10.5027
710,10.5059
712,10.5091
714,10.5123
716,10.5155
718,10.5187
720,10.522
722,10.5252
724,10.5285
726,10.5318
728,10.5352
730,10.5385
732,10.5419
734,10.5453
736,10.5487
738,10.5521
740,10.5556
742,10.559
744,10.5625
746,10.5661
748,10.5696
750,10.5732
752,10.5767
754,10.5803
756,10.584
758,10.5876
760,10.5913
762,10.595
764,10.5987
766,10.6025
768,10.6062
770,10.61
772,10.6138
774,10.6177
776,10.6215
778,10.6254
780,10.6293
782,10.6332
784,10.6372
786,10.6412
788,10.6452
790,10.6492
792,10.6532
794,10.6573
796,10.6614
798,10.6655
800,10.6696
802,10.6738
804,10.678
806,10.6821
808,10.6864
810,10.6906
812,10.6949
814,10.6991
816,10.7034
818,10.7077
820,10.712
822,10.7164
824,10.7207
826,10.7251
828,10.7295
830,10.7339
832,10.7383
834,10.7427
836,10.7471
838,10.7515
840,10.756
842,10.7604
844,10.7648
846,10.7693
848,10.7737
850,10.7782
852,10.7826
854,10.7871
856,10.7915
858,10.7959
860,10.8004
862,10.8048
864,10.8092
866,10.8136
868,10.818
870,10.8223
872,10.8267
874,10.831
876,10.8353
878,10.8396
880,10.8439
882,10.8481
884,10.8524
886,10.8566
888,10.8608
890,10.8649
892,10.869
894,10.8732
896,10.8772
898,10.8813
900,10.8853
902,10.8893
904,10.8933
906,10.8972
908,10.9012
910,10.905
912,10.9089
914,10.9127
916,10.9166
918,10.9203
920,10.9241
922,10.9278
924,10.9315
926,10.9352
928,10.9389
930,10.9425
932,10.9461
934,10.9497
936,10.9532
938,10.9568
940,10.9603
942,10.9638
944,10.9672
946,10.9707
948,10.9741
950,10.9775
952,10.9809
954,10.9843
956,10.9876
958,10.991
960,10.9943
962,10.9976
964,11.0008
966,11.0041
968,11.0073
970,11.0106
972,11.0138
974,11.0169
976,11.0201
978,11.0233
980,11.0264
982,11.0295
984,11.0326
986,11.0357
988,11.0388
990,11.0418
992,11.0449
994,11.0479
996,11.0509
998,11.0539
1000,11.0569
1000,11.0569
1000,11.0569
1010,11.0715
1010,11.0715
1010,11.0715
1010,11.0715
1010,11.0715
1020,11.0858
1020,11.0858
1020,11.0858
1020,11.0858
1020,11.0858
1030,11.0998
1030,11.0998
1030,11.0998
1030,11.0998
1030,11.0998
1040,11.1134
1040,11.1134
1040,11.1134
1040,11.1134
1040,11.1134
1050,11.1267
1050,11.1267
1050,11.1267
1050,11.1267
1050,11.1267
1060,11.1397
1060,11.1397
1060,11.1397
1060,11.1397
1060,11.1397
1070,11.1524
1070,11.1524
1070,11.1524
1070,11.1524
1070,11.1524
1080,11.1648
1080,11.1648
1080,11.1648
1080,11.1648
1080,11.1648
1090,11.1769
1090,11.1769
1090,11.1769
1090,11.1769
1090,11.1769
1100,11.1887
1100,11.1887
1100,11.1887
1100,11.1887
1100,11.1887
1110,11.2003
1110,11.2003
1110,11.2003
1110,11.2003
1110,11.2003
1120,11.2115
1120,11.2115
1120,11.2115
1120,11.2115
1120,11.2115
1130,11.2226
1130,11.2226
1130,11.2226
1130,11.2226
1130,11.2226
1140,11.2333
1140,11.2333
1140,11.2333
1140,11.2333
1140,11.2333
1150,11.2438
1150,11.2438
1150,11.2438
1150,11.2438
1150,11.2438
1160,11.2541
1160,11.2541
1160,11.2541
1160,11.2541
1160,11.2541
1170,11.2642
1170,11.2642
1170,11.2642
1170,11.2642
1170,11.2642
1180,11.274
1180,11.274
1180,11.274
1180,11.274
1180,11.274
1190,11.2836
1190,11.2836
1190,11.2836
1190,11.2836
1190,11.2836
1200,11.2929
1200,11.2929
1200,11.2929
1200,11.2929
1200,11.2929
1210,11.3021
1210,11.3021
1210,11.3021
1210,11.3021
1210,11.3021
1220,11.311
1220,11.311
1220,11.311
1220,11.311
1220,11.311
1230,11.3198
1230,11.3198
1230,11.3198
1230,11.3198
1230,11.3198
1240,11.3283
1240,11.3283
1240,11.3283
1240,11.3283
1240,11.3283
1250,11.3366
1250,11.3366
1250,11.3366
1250,11.3366
1250,11.3366
1260,11.3448
1260,11.3448
1260,11.3448
1260,11.3448
1260,11.3448
1270,11.3528
1270,11.3528
1270,11.3528
1270,11.3528
1270,11.3528
1280,11.3605
1280,11.3605
1280,11.3605
1280,11.3605
1280,11.3605
1290,11.3681
1290,11.3681
1290,11.3681
1290,11.3681
1290,11.3681
1300,11.3756
1300,11.3756
1300,11.3756
1300,11.3756
1300,11.3756
1310,11.3828
1310,11.3828
1310,11.3828
1310,11.3828
1310,11.3828
1320,11.3899
1320,11.3899
1320,11.3899
1320,11.3899
1320,11.3899
1330,11.3969
1330,11.3969
1330,11.3969
1330,11.3969
1330,11.3969
1340,11.4037
1340,11.4037
1340,11.4037
1340,11.4037
1340,11.4037
1350,11.4103
1350,11.4103
1350,11.4103
1350,11.4103
1350,11.4103
1360,11.4168
1360,11.4168
1360,11.4168
1360,11.4168
1360,11.4168
1370,11.4231
1370,11.4231
1370,11.4231
1370,11.4231
1370,11.4231
1380,11.4293
1380,11.4293
1380,11.4293
1380,11.4293
1380,11.4293
1390,11.4353
1390,11.4353
1390,11.4353
1390,11.4353
1390,11.4353
1400,11.4412
1400,11.4412
1400,11.4412
1400,11.4412
1400,11.4412
1410,11.447
1410,11.447
1410,11.447
1410,11.447
1410,11.447
1420,11.4526
1420,11.4526
1420,11.4526
1420,11.4526
1420,11.4526
1430,11.4581
1430,11.4581
1430,11.4581
1430,11.4581
1430,11.4581
1440,11.4635
1440,11.4635
1440,11.4635
1440,11.4635
1440,11.4635
1450,11.4688
1450,11.4688
1450,11.4688
1450,11.4688
1450,11.4688
1460,11.4739
1460,11.4739
1460,11.4739
1460,11.4739
1460,11.4739
1470,11.4789
1470,11.4789
1470,11.4789
1470,11.4789
1470,11.4789
1480,11.4838
1480,11.4838
1480,11.4838
1480,11.4838
1480,11.4838
1490,11.4886
1490,11.4886
1490,11.4886
1490,11.4886
1490,11.4886
1500,11.4933
1500,11.4933
1500,11.4933
1500,11.4933
1500,11.4933
1510,11.4979
1510,11.4979
1510,11.4979
1510,11.4979
1510,11.4979
1520,11.5024
1520,11.5024
1520,11.5024
1520,11.5024
1520,11.5024
1530,11.5068
1530,11.5068
1530,11.5068
1530,11.5068
1530,11.5068
1540,11.511
1540,11.511
1540,11.511
1540,11.511
1540,11.511
1550,11.5152
1550,11.5152
1550,11.5152
1550,11.5152
1550,11.5152
1560,11.5193
1560,11.5193
1560,11.5193
1560,11.5193
1560,11.5193
1570,11.5233
1570,11.5233
1570,11.5233
1570,11.5233
1570,11.5233
1580,11.5272
1580,11.5272
1580,11.5272
1580,11.5272
1580,11.5272
1590,11.531
1590,11.531
1590,11.531
1590,11.531
1590,11.531
1600,11.5347
1600,11.5347
1600,11.5347
1600,11.5347
1600,11.5347
1610,11.5384
1610,11.5384
1610,11.5384
1610,11.5384
1610,11.5384
1620,11.5419
1620,11.5419
1620,11.5419
1620,11.5419
1620,11.5419
1630,11.5454
1630,11.5454
1630,11.5454
1630,11.5454
1630,11.5454
1640,11.5488
1640,11.5488
1640,11.5488
1640,11.5488
1640,11.5488
1650,11.5521
1650,11.5521
1650,11.5521
1650,11.5521
1650,11.5521
1660,11.5554
1660,11.5554
1660,11.5554
1660,11.5554
1660,11.5554
1670,11.5586
1670,11.5586
1670,11.5586
1670,11.5586
1670,11.5586
1680,11.5617
1680,11.5617
1680,11.5617
1680,11.5617
1680,11.5617
1690,11.5647
1690,11.5647
1690,11.5647
1690,11.5647
1690,11.5647
1700,11.5677
1700,11.5677
1700,11.5677
1700,11.5677
1700,11.5677
1710,11.5705
1710,11.5705
1710,11.5705
1710,11.5705
1710,11.5705
1720,11.5734
1720,11.5734
1720,11.5734
1720,11.5734
1720,11.5734
1730,11.5761
1730,11.5761
1730,11.5761
1730,11.5761
1730,11.5761
1740,11.5788
1740,11.5788
1740,11.5788
1740,11.5788
1740,11.5788
1750,11.5815
1750,11.5815
1750,11.5815
1750,11.5815
1750,11.5815
1760,11.5841
1760,11.5841
1760,11.5841
1760,11.5841
1760,11.5841
1770,11.5866
1770,11.5866
1770,11.5866
1770,11.5866
1770,11.5866
1780,11.589
1780,11.589
1780,11.589
1780,11.589
1780,11.589
1790,11.5915
1790,11.5915
1790,11.5915
1790,11.5915
1790,11.5915
1800,11.5938
1800,11.5938
1800,11.5938