File: results/E_Glass/E_Glass_linear_tga_M_BT/E_Glass_linear_tga_M_BT_0_cone_FT.csv
# Time [s], Temperature [C]
0.000000000000000000e+00,25
2,31.5642
4,39.0047
6,44.4367
8,48.8954
10,52.7547
12,56.1978
14,59.3312
16,62.2236
18,64.9231
20,67.4656
22,69.8787
24,72.1846
26,74.4012
28,76.5428
30,78.6216
32,80.6475
34,82.6286
36,84.5718
38,86.4829
40,88.3663
42,90.226
44,92.0652
46,93.8867
48,95.6926
50,97.4848
52,99.2649
54,101.034
56,102.793
58,104.543
60,106.286
62,108.02
64,109.747
66,111.467
68,113.181
70,114.889
72,116.591
74,118.287
76,119.978
78,121.663
80,123.343
82,125.018
84,126.687
86,128.351
88,130.011
90,131.665
92,133.314
94,134.959
96,136.598
98,138.233
100,139.862
102,141.487
104,143.107
106,144.722
108,146.333
110,147.939
112,149.54
114,151.137
116,152.729
118,154.317
120,155.9
122,157.479
124,159.054
126,160.625
128,162.192
130,163.755
132,165.315
134,166.871
136,168.425
138,169.975
140,171.523
142,173.068
144,174.611
146,176.152
148,177.691
150,179.229
152,180.765
154,182.301
156,183.834
158,185.367
160,186.898
162,188.427
164,189.955
166,191.479
168,193.001
170,194.519
172,196.032
174,197.54
176,199.042
178,200.537
180,202.025
182,203.505
184,204.976
186,206.439
188,207.892
190,209.337
192,210.772
194,212.197
196,213.614
198,215.021
200,216.42
202,217.809
204,219.19
206,220.563
208,221.928
210,223.285
212,224.634
214,225.976
216,227.31
218,228.637
220,229.957
222,231.27
224,232.576
226,233.876
228,235.168
230,236.454
232,237.733
234,239.006
236,240.272
238,241.531
240,242.784
242,244.031
244,245.27
246,246.503
248,247.729
250,248.948
252,250.161
254,251.367
256,252.565
258,253.757
260,254.942
262,256.118
264,257.288
266,258.45
268,259.603
270,260.75
272,261.889
274,263.017
276,264.14
278,265.253
280,266.356
282,267.452
284,268.538
286,269.612
288,270.68
290,271.737
292,272.78
294,273.818
296,274.843
298,275.854
300,276.858
302,277.849
304,278.824
306,279.793
308,280.748
310,281.685
312,282.615
314,283.531
316,284.427
318,285.318
320,286.193
322,287.045
324,287.894
326,288.726
328,289.534
330,290.339
332,291.126
334,291.888
336,292.648
338,293.391
340,294.106
342,294.823
344,295.52
346,296.19
348,296.862
350,297.516
352,298.141
354,298.772
356,299.384
358,299.966
360,300.557
362,301.131
364,301.673
366,302.228
368,302.765
370,303.272
372,303.793
374,304.299
376,304.774
378,305.266
380,305.744
382,306.191
384,306.659
386,307.113
388,307.536
390,307.984
392,308.419
394,308.823
396,309.254
398,309.673
400,310.062
402,310.482
404,310.889
406,311.267
408,311.678
410,312.078
412,312.448
414,312.853
416,313.249
418,313.614
420,314.018
422,314.411
424,314.776
426,315.18
428,315.575
430,315.941
432,316.348
434,316.746
436,317.116
438,317.528
440,317.932
442,318.308
444,318.727
446,319.139
448,319.523
450,319.951
452,320.372
454,320.766
456,321.205
458,321.638
460,322.043
462,322.495
464,322.939
466,323.357
468,323.823
470,324.281
472,324.714
474,325.194
476,325.668
478,326.116
480,326.613
482,327.103
484,327.568
486,328.082
488,328.589
490,329.073
492,329.604
494,330.13
496,330.633
498,331.183
500,331.727
502,332.251
504,332.82
506,333.383
508,333.927
510,334.515
512,335.097
514,335.662
516,336.268
518,336.871
520,337.456
522,338.079
524,338.7
526,339.305
528,339.946
530,340.582
532,341.206
534,341.861
536,342.512
538,343.152
540,343.82
542,344.483
544,345.136
546,345.813
548,346.485
550,347.148
552,347.83
554,348.507
556,349.175
558,349.859
560,350.536
562,351.206
564,351.887
566,352.562
568,353.229
570,353.902
572,354.571
574,355.231
576,355.896
578,356.554
580,357.203
582,357.857
584,358.502
586,359.141
588,359.779
590,360.41
592,361.036
594,361.658
596,362.275
598,362.885
600,363.491
602,364.094
604,364.688
606,365.28
608,365.865
610,366.445
612,367.021
614,367.591
616,368.158
618,368.719
620,369.275
622,369.826
624,370.373
626,370.916
628,371.454
630,371.987
632,372.517
634,373.042
636,373.563
638,374.08
640,374.593
642,375.103
644,375.609
646,376.11
648,376.609
650,377.103
652,377.595
654,378.084
656,378.569
658,379.05
660,379.528
662,380.004
664,380.477
666,380.946
668,381.414
670,381.878
672,382.338
674,382.798
676,383.253
678,383.706
680,384.159
682,384.607
684,385.052
686,385.497
688,385.938
690,386.377
692,386.815
694,387.25
696,387.684
698,388.115
700,388.545
702,388.973
704,389.398
706,389.822
708,390.244
710,390.665
712,391.084
714,391.502
716,391.917
718,392.332
720,392.746
722,393.158
724,393.569
726,393.978
728,394.386
730,394.794
732,395.199
734,395.606
736,396.009
738,396.412
740,396.815
742,397.216
744,397.617
746,398.017
748,398.416
750,398.814
752,399.212
754,399.61
756,400.007
758,400.404
760,400.801
762,401.196
764,401.592
766,401.988
768,402.383
770,402.779
772,403.175
774,403.569
776,403.965
778,404.362
780,404.758
782,405.154
784,405.551
786,405.949
788,406.346
790,406.744
792,407.144
794,407.543
796,407.944
798,408.345
800,408.747
802,409.15
804,409.554
806,409.959
808,410.366
810,410.773
812,411.182
814,411.593
816,412.005
818,412.418
820,412.832
822,413.249
824,413.667
826,414.087
828,414.509
830,414.932
832,415.357
834,415.784
836,416.213
838,416.643
840,417.076
842,417.512
844,417.948
846,418.385
848,418.825
850,419.266
852,419.709
854,420.153
856,420.599
858,421.045
860,421.493
862,421.942
864,422.391
866,422.841
868,423.291
870,423.742
872,424.191
874,424.642
876,425.092
878,425.541
880,425.988
882,426.435
884,426.881
886,427.325
888,427.767
890,428.208
892,428.648
894,429.084
896,429.519
898,429.951
900,430.381
902,430.807
904,431.232
906,431.653
908,432.072
910,432.488
912,432.9
914,433.31
916,433.717
918,434.121
920,434.522
922,434.919
924,435.313
926,435.704
928,436.092
930,436.477
932,436.859
934,437.237
936,437.612
938,437.983
940,438.352
942,438.718
944,439.079
946,439.439
948,439.794
950,440.147
952,440.497
954,440.842
956,441.185
958,441.525
960,441.863
962,442.196
964,442.527
966,442.854
968,443.179
970,443.502
972,443.821
974,444.136
976,444.45
978,444.759
980,445.066
982,445.37
984,445.672
986,445.969
988,446.266
990,446.559
992,446.85
994,447.136
996,447.421
998,447.703
1000,447.982
1000,447.982
1000,447.982
1010,449.34
1010,449.34
1010,449.34
1010,449.34
1010,449.34
1020,450.633
1020,450.633
1020,450.633
1020,450.633
1020,450.633
1030,451.865
1030,451.865
1030,451.865
1030,451.865
1030,451.865
1040,453.039
1040,453.039
1040,453.039
1040,453.039
1040,453.039
1050,454.157
1050,454.157
1050,454.157
1050,454.157
1050,454.157
1060,455.221
1060,455.221
1060,455.221
1060,455.221
1060,455.221
1070,456.233
1070,456.233
1070,456.233
1070,456.233
1070,456.233
1080,457.197
1080,457.197
1080,457.197
1080,457.197
1080,457.197
1090,458.113
1090,458.113
1090,458.113
1090,458.113
1090,458.113
1100,458.985
1100,458.985
1100,458.985
1100,458.985
1100,458.985
1110,459.813
1110,459.813
1110,459.813
1110,459.813
1110,459.813
1120,460.601
1120,460.601
1120,460.601
1120,460.601
1120,460.601
1130,461.351
1130,461.351
1130,461.351
1130,461.351
1130,461.351
1140,462.063
1140,462.063
1140,462.063
1140,462.063
1140,462.063
1150,462.74
1150,462.74
1150,462.74
1150,462.74
1150,462.74
1160,463.382
1160,463.382
1160,463.382
1160,463.382
1160,463.382
1170,463.993
1170,463.993
1170,463.993
1170,463.993
1170,463.993
1180,464.573
1180,464.573
1180,464.573
1180,464.573
1180,464.573
1190,465.125
1190,465.125
1190,465.125
1190,465.125
1190,465.125
1200,465.647
1200,465.647
1200,465.647
1200,465.647
1200,465.647
1210,466.143
1210,466.143
1210,466.143
1210,466.143
1210,466.143
1220,466.616
1220,466.616
1220,466.616
1220,466.616
1220,466.616
1230,467.064
1230,467.064
1230,467.064
1230,467.064
1230,467.064
1240,467.489
1240,467.489
1240,467.489
1240,467.489
1240,467.489
1250,467.892
1250,467.892
1250,467.892
1250,467.892
1250,467.892
1260,468.275
1260,468.275
1260,468.275
1260,468.275
1260,468.275
1270,468.639
1270,468.639
1270,468.639
1270,468.639
1270,468.639
1280,468.982
1280,468.982
1280,468.982
1280,468.982
1280,468.982
1290,469.309
1290,469.309
1290,469.309
1290,469.309
1290,469.309
1300,469.62
1300,469.62
1300,469.62
1300,469.62
1300,469.62
1310,469.915
1310,469.915
1310,469.915
1310,469.915
1310,469.915
1320,470.194
1320,470.194
1320,470.194
1320,470.194
1320,470.194
1330,470.458
1330,470.458
1330,470.458
1330,470.458
1330,470.458
1340,470.71
1340,470.71
1340,470.71
1340,470.71
1340,470.71
1350,470.947
1350,470.947
1350,470.947
1350,470.947
1350,470.947
1360,471.174
1360,471.174
1360,471.174
1360,471.174
1360,471.174
1370,471.389
1370,471.389
1370,471.389
1370,471.389
1370,471.389
1380,471.591
1380,471.591
1380,471.591
1380,471.591
1380,471.591
1390,471.785
1390,471.785
1390,471.785
1390,471.785
1390,471.785
1400,471.967
1400,471.967
1400,471.967
1400,471.967
1400,471.967
1410,472.139
1410,472.139
1410,472.139
1410,472.139
1410,472.139
1420,472.305
1420,472.305
1420,472.305
1420,472.305
1420,472.305
1430,472.459
1430,472.459
1430,472.459
1430,472.459
1430,472.459
1440,472.608
1440,472.608
1440,472.608
1440,472.608
1440,472.608
1450,472.748
1450,472.748
1450,472.748
1450,472.748
1450,472.748
1460,472.88
1460,472.88
1460,472.88
1460,472.88
1460,472.88
1470,473.007
1470,473.007
1470,473.007
1470,473.007
1470,473.007
1480,473.126
1480,473.126
1480,473.126
1480,473.126
1480,473.126
1490,473.238
1490,473.238
1490,473.238
1490,473.238
1490,473.238
1500,473.346
1500,473.346
1500,473.346
1500,473.346
1500,473.346
1510,473.448
1510,473.448
1510,473.448
1510,473.448
1510,473.448
1520,473.543
1520,473.543
1520,473.543
1520,473.543
1520,473.543
1530,473.634
1530,473.634
1530,473.634
1530,473.634
1530,473.634
1540,473.72
1540,473.72
1540,473.72
1540,473.72
1540,473.72
1550,473.804
1550,473.804
1550,473.804
1550,473.804
1550,473.804
1560,473.881
1560,473.881
1560,473.881
1560,473.881
1560,473.881
1570,473.954
1570,473.954
1570,473.954
1570,473.954
1570,473.954
1580,474.024
1580,474.024
1580,474.024
1580,474.024
1580,474.024
1590,474.09
1590,474.09
1590,474.09
1590,474.09
1590,474.09
1600,474.154
1600,474.154
1600,474.154
1600,474.154
1600,474.154
1610,474.213
1610,474.213
1610,474.213
1610,474.213
1610,474.213
1620,474.269
1620,474.269
1620,474.269
1620,474.269
1620,474.269
1630,474.322
1630,474.322
1630,474.322
1630,474.322
1630,474.322
1640,474.373
1640,474.373
1640,474.373
1640,474.373
1640,474.373
1650,474.42
1650,474.42
1650,474.42
1650,474.42
1650,474.42
1660,474.465
1660,474.465
1660,474.465
1660,474.465
1660,474.465
1670,474.508
1670,474.508
1670,474.508
1670,474.508
1670,474.508
1680,474.551
1680,474.551
1680,474.551
1680,474.551
1680,474.551
1690,474.59
1690,474.59
1690,474.59
1690,474.59
1690,474.59
1700,474.626
1700,474.626
1700,474.626
1700,474.626
1700,474.626
1710,474.66
1710,474.66
1710,474.66
1710,474.66
1710,474.66
1720,474.693
1720,474.693
1720,474.693
1720,474.693
1720,474.693
1730,474.724
1730,474.724
1730,474.724
1730,474.724
1730,474.724
1740,474.753
1740,474.753
1740,474.753
1740,474.753
1740,474.753
1750,474.781
1750,474.781
1750,474.781
1750,474.781
1750,474.781
1760,474.808
1760,474.808
1760,474.808
1760,474.808
1760,474.808
1770,474.832
1770,474.832
1770,474.832
1770,474.832
1770,474.832
1780,474.856
1780,474.856
1780,474.856
1780,474.856
1780,474.856
1790,474.879
1790,474.879
1790,474.879
1790,474.879
1790,474.879
1800,474.9
1800,474.9
1800,474.9