File: results/E_Glass/E_Glass_linear_tga_M_BT/E_Glass_linear_tga_M_BT_0_cone_Bh.csv
# Time [s], Convective Heat Transfer Coefficient [W/m2K]
0.000000000000000000e+00,0.000000000000000000e+00
2,0.0681174
4,0.25699
6,0.549811
8,0.891713
10,1.23503
12,1.55869
14,1.85715
16,2.1307
18,2.3815
20,2.61206
22,2.82484
24,3.02198
26,3.20537
28,3.37661
30,3.53709
32,3.68798
34,3.8303
36,3.96492
38,4.0926
40,4.21401
42,4.32971
44,4.44021
46,4.54597
48,4.64737
50,4.74477
52,4.83848
54,4.92877
56,5.01591
58,5.1001
60,5.18156
62,5.26048
64,5.337
66,5.41129
68,5.48348
70,5.55369
72,5.62205
74,5.68865
76,5.75359
78,5.81696
80,5.87884
82,5.9393
84,5.99841
86,6.05624
88,6.11285
90,6.16829
92,6.22262
94,6.27587
96,6.3281
98,6.37935
100,6.42965
102,6.47905
104,6.52757
106,6.57526
108,6.62213
110,6.66823
112,6.71357
114,6.75818
116,6.80209
118,6.84531
120,6.88788
122,6.9298
124,6.9711
126,7.01181
128,7.05192
130,7.09147
132,7.13047
134,7.16893
136,7.20686
138,7.24428
140,7.28121
142,7.31765
144,7.35362
146,7.38912
148,7.42418
150,7.45879
152,7.49297
154,7.52672
156,7.56006
158,7.59299
160,7.62553
162,7.65768
164,7.68944
166,7.72083
168,7.75185
170,7.78251
172,7.81282
174,7.84279
176,7.87242
178,7.90171
180,7.93069
182,7.95935
184,7.9877
186,8.01576
188,8.04351
190,8.07098
192,8.09817
194,8.12508
196,8.15171
198,8.17809
200,8.2042
202,8.23006
204,8.25567
206,8.28103
208,8.30614
210,8.33102
212,8.35566
214,8.38007
216,8.40426
218,8.42821
220,8.45195
222,8.47547
224,8.49877
226,8.52186
228,8.54473
230,8.5674
232,8.58986
234,8.61212
236,8.63418
238,8.65604
240,8.6777
242,8.69916
244,8.72042
246,8.7415
248,8.76238
250,8.78307
252,8.80357
254,8.82388
256,8.844
258,8.86394
260,8.88368
262,8.90325
264,8.92262
266,8.94181
268,8.96081
270,8.97962
272,8.99825
274,9.01669
276,9.03493
278,9.05299
280,9.07086
282,9.08854
284,9.10602
286,9.12331
288,9.1404
290,9.15729
292,9.17398
294,9.19047
296,9.20675
298,9.22282
300,9.23868
302,9.25433
304,9.26975
306,9.28496
308,9.29994
310,9.31469
312,9.32921
314,9.34349
316,9.35753
318,9.37133
320,9.38489
322,9.39819
324,9.41124
326,9.42403
328,9.43656
330,9.44883
332,9.46083
334,9.47256
336,9.48402
338,9.4952
340,9.50611
342,9.51674
344,9.5271
346,9.53718
348,9.54697
350,9.5565
352,9.56574
354,9.57471
356,9.5834
358,9.59183
360,9.59999
362,9.60788
364,9.61551
366,9.62288
368,9.63
370,9.63687
372,9.64351
374,9.6499
376,9.65606
378,9.662
380,9.66773
382,9.67324
384,9.67855
386,9.68366
388,9.68858
390,9.69331
392,9.69787
394,9.70227
396,9.7065
398,9.71057
400,9.7145
402,9.71828
404,9.72193
406,9.72546
408,9.72886
410,9.73215
412,9.73532
414,9.7384
416,9.74137
418,9.74426
420,9.74706
422,9.74977
424,9.75241
426,9.75498
428,9.75748
430,9.75991
432,9.76229
434,9.76461
436,9.76688
438,9.7691
440,9.77127
442,9.77341
444,9.7755
446,9.77756
448,9.77959
450,9.78158
452,9.78355
454,9.78549
456,9.78741
458,9.78931
460,9.79119
462,9.79305
464,9.79489
466,9.79672
468,9.79853
470,9.80034
472,9.80213
474,9.80392
476,9.8057
478,9.80747
480,9.80924
482,9.811
484,9.81276
486,9.81452
488,9.81627
490,9.81803
492,9.81978
494,9.82154
496,9.8233
498,9.82506
500,9.82682
502,9.82859
504,9.83036
506,9.83214
508,9.83392
510,9.83571
512,9.8375
514,9.83931
516,9.84112
518,9.84293
520,9.84476
522,9.84659
524,9.84844
526,9.85029
528,9.85215
530,9.85403
532,9.85591
534,9.85781
536,9.85972
538,9.86164
540,9.86357
542,9.86552
544,9.86747
546,9.86945
548,9.87143
550,9.87343
552,9.87544
554,9.87746
556,9.8795
558,9.88156
560,9.88363
562,9.88571
564,9.88781
566,9.88992
568,9.89205
570,9.89419
572,9.89635
574,9.89853
576,9.90071
578,9.90292
580,9.90514
582,9.90737
584,9.90962
586,9.91189
588,9.91417
590,9.91647
592,9.91878
594,9.92111
596,9.92346
598,9.92583
600,9.92821
602,9.93061
604,9.93302
606,9.93546
608,9.93791
610,9.94038
612,9.94287
614,9.94538
616,9.94791
618,9.95046
620,9.95303
622,9.95562
624,9.95824
626,9.96087
628,9.96353
630,9.96621
632,9.96892
634,9.97165
636,9.9744
638,9.97718
640,9.97999
642,9.98282
644,9.98568
646,9.98857
648,9.99148
650,9.99443
652,9.9974
654,10.0004
656,10.0034
658,10.0065
660,10.0096
662,10.0127
664,10.0159
666,10.0191
668,10.0224
670,10.0256
672,10.0289
674,10.0323
676,10.0357
678,10.0391
680,10.0426
682,10.0461
684,10.0496
686,10.0532
688,10.0569
690,10.0606
692,10.0643
694,10.0681
696,10.0719
698,10.0758
700,10.0797
702,10.0837
704,10.0878
706,10.0919
708,10.096
710,10.1003
712,10.1045
714,10.1089
716,10.1133
718,10.1177
720,10.1223
722,10.1269
724,10.1315
726,10.1363
728,10.1411
730,10.146
732,10.151
734,10.156
736,10.1611
738,10.1664
740,10.1717
742,10.177
744,10.1825
746,10.1881
748,10.1938
750,10.1996
752,10.2054
754,10.2114
756,10.2175
758,10.2237
760,10.23
762,10.2364
764,10.243
766,10.2497
768,10.2565
770,10.2634
772,10.2705
774,10.2777
776,10.285
778,10.2925
780,10.3001
782,10.3079
784,10.3158
786,10.3239
788,10.3322
790,10.3406
792,10.3492
794,10.3579
796,10.3668
798,10.3759
800,10.3852
802,10.3946
804,10.4042
806,10.414
808,10.424
810,10.4341
812,10.4445
814,10.4549
816,10.4656
818,10.4764
820,10.4874
822,10.4985
824,10.5097
826,10.5211
828,10.5326
830,10.5442
832,10.5559
834,10.5677
836,10.5795
838,10.5914
840,10.6033
842,10.6152
844,10.6271
846,10.6389
848,10.6507
850,10.6625
852,10.6742
854,10.6858
856,10.6973
858,10.7087
860,10.7199
862,10.731
864,10.742
866,10.7529
868,10.7635
870,10.7741
872,10.7845
874,10.7947
876,10.8048
878,10.8148
880,10.8246
882,10.8343
884,10.8438
886,10.8532
888,10.8625
890,10.8717
892,10.8807
894,10.8896
896,10.8984
898,10.9071
900,10.9157
902,10.9242
904,10.9326
906,10.9409
908,10.949
910,10.9571
912,10.9651
914,10.973
916,10.9808
918,10.9885
920,10.9961
922,11.0037
924,11.0111
926,11.0185
928,11.0258
930,11.033
932,11.0401
934,11.0472
936,11.0541
938,11.061
940,11.0679
942,11.0746
944,11.0813
946,11.0879
948,11.0944
950,11.1009
952,11.1073
954,11.1136
956,11.1198
958,11.126
960,11.1321
962,11.1382
964,11.1442
966,11.1501
968,11.156
970,11.1618
972,11.1675
974,11.1732
976,11.1788
978,11.1843
980,11.1898
982,11.1953
984,11.2006
986,11.206
988,11.2112
990,11.2164
992,11.2216
994,11.2267
996,11.2317
998,11.2367
1000,11.2416
1000,11.2416
1000,11.2416
1010,11.2655
1010,11.2655
1010,11.2655
1010,11.2655
1010,11.2655
1020,11.2882
1020,11.2882
1020,11.2882
1020,11.2882
1020,11.2882
1030,11.3096
1030,11.3096
1030,11.3096
1030,11.3096
1030,11.3096
1040,11.33
1040,11.33
1040,11.33
1040,11.33
1040,11.33
1050,11.3493
1050,11.3493
1050,11.3493
1050,11.3493
1050,11.3493
1060,11.3676
1060,11.3676
1060,11.3676
1060,11.3676
1060,11.3676
1070,11.3849
1070,11.3849
1070,11.3849
1070,11.3849
1070,11.3849
1080,11.4013
1080,11.4013
1080,11.4013
1080,11.4013
1080,11.4013
1090,11.4169
1090,11.4169
1090,11.4169
1090,11.4169
1090,11.4169
1100,11.4317
1100,11.4317
1100,11.4317
1100,11.4317
1100,11.4317
1110,11.4457
1110,11.4457
1110,11.4457
1110,11.4457
1110,11.4457
1120,11.4589
1120,11.4589
1120,11.4589
1120,11.4589
1120,11.4589
1130,11.4715
1130,11.4715
1130,11.4715
1130,11.4715
1130,11.4715
1140,11.4834
1140,11.4834
1140,11.4834
1140,11.4834
1140,11.4834
1150,11.4947
1150,11.4947
1150,11.4947
1150,11.4947
1150,11.4947
1160,11.5054
1160,11.5054
1160,11.5054
1160,11.5054
1160,11.5054
1170,11.5155
1170,11.5155
1170,11.5155
1170,11.5155
1170,11.5155
1180,11.5252
1180,11.5252
1180,11.5252
1180,11.5252
1180,11.5252
1190,11.5343
1190,11.5343
1190,11.5343
1190,11.5343
1190,11.5343
1200,11.5429
1200,11.5429
1200,11.5429
1200,11.5429
1200,11.5429
1210,11.5511
1210,11.5511
1210,11.5511
1210,11.5511
1210,11.5511
1220,11.5589
1220,11.5589
1220,11.5589
1220,11.5589
1220,11.5589
1230,11.5662
1230,11.5662
1230,11.5662
1230,11.5662
1230,11.5662
1240,11.5732
1240,11.5732
1240,11.5732
1240,11.5732
1240,11.5732
1250,11.5798
1250,11.5798
1250,11.5798
1250,11.5798
1250,11.5798
1260,11.586
1260,11.586
1260,11.586
1260,11.586
1260,11.586
1270,11.592
1270,11.592
1270,11.592
1270,11.592
1270,11.592
1280,11.5976
1280,11.5976
1280,11.5976
1280,11.5976
1280,11.5976
1290,11.6029
1290,11.6029
1290,11.6029
1290,11.6029
1290,11.6029
1300,11.608
1300,11.608
1300,11.608
1300,11.608
1300,11.608
1310,11.6127
1310,11.6127
1310,11.6127
1310,11.6127
1310,11.6127
1320,11.6173
1320,11.6173
1320,11.6173
1320,11.6173
1320,11.6173
1330,11.6216
1330,11.6216
1330,11.6216
1330,11.6216
1330,11.6216
1340,11.6256
1340,11.6256
1340,11.6256
1340,11.6256
1340,11.6256
1350,11.6295
1350,11.6295
1350,11.6295
1350,11.6295
1350,11.6295
1360,11.6332
1360,11.6332
1360,11.6332
1360,11.6332
1360,11.6332
1370,11.6366
1370,11.6366
1370,11.6366
1370,11.6366
1370,11.6366
1380,11.6399
1380,11.6399
1380,11.6399
1380,11.6399
1380,11.6399
1390,11.643
1390,11.643
1390,11.643
1390,11.643
1390,11.643
1400,11.646
1400,11.646
1400,11.646
1400,11.646
1400,11.646
1410,11.6488
1410,11.6488
1410,11.6488
1410,11.6488
1410,11.6488
1420,11.6514
1420,11.6514
1420,11.6514
1420,11.6514
1420,11.6514
1430,11.6539
1430,11.6539
1430,11.6539
1430,11.6539
1430,11.6539
1440,11.6563
1440,11.6563
1440,11.6563
1440,11.6563
1440,11.6563
1450,11.6585
1450,11.6585
1450,11.6585
1450,11.6585
1450,11.6585
1460,11.6607
1460,11.6607
1460,11.6607
1460,11.6607
1460,11.6607
1470,11.6627
1470,11.6627
1470,11.6627
1470,11.6627
1470,11.6627
1480,11.6646
1480,11.6646
1480,11.6646
1480,11.6646
1480,11.6646
1490,11.6664
1490,11.6664
1490,11.6664
1490,11.6664
1490,11.6664
1500,11.6681
1500,11.6681
1500,11.6681
1500,11.6681
1500,11.6681
1510,11.6698
1510,11.6698
1510,11.6698
1510,11.6698
1510,11.6698
1520,11.6713
1520,11.6713
1520,11.6713
1520,11.6713
1520,11.6713
1530,11.6728
1530,11.6728
1530,11.6728
1530,11.6728
1530,11.6728
1540,11.6742
1540,11.6742
1540,11.6742
1540,11.6742
1540,11.6742
1550,11.6755
1550,11.6755
1550,11.6755
1550,11.6755
1550,11.6755
1560,11.6767
1560,11.6767
1560,11.6767
1560,11.6767
1560,11.6767
1570,11.6779
1570,11.6779
1570,11.6779
1570,11.6779
1570,11.6779
1580,11.679
1580,11.679
1580,11.679
1580,11.679
1580,11.679
1590,11.6801
1590,11.6801
1590,11.6801
1590,11.6801
1590,11.6801
1600,11.6811
1600,11.6811
1600,11.6811
1600,11.6811
1600,11.6811
1610,11.682
1610,11.682
1610,11.682
1610,11.682
1610,11.682
1620,11.6829
1620,11.6829
1620,11.6829
1620,11.6829
1620,11.6829
1630,11.6838
1630,11.6838
1630,11.6838
1630,11.6838
1630,11.6838
1640,11.6846
1640,11.6846
1640,11.6846
1640,11.6846
1640,11.6846
1650,11.6854
1650,11.6854
1650,11.6854
1650,11.6854
1650,11.6854
1660,11.6861
1660,11.6861
1660,11.6861
1660,11.6861
1660,11.6861
1670,11.6868
1670,11.6868
1670,11.6868
1670,11.6868
1670,11.6868
1680,11.6874
1680,11.6874
1680,11.6874
1680,11.6874
1680,11.6874
1690,11.688
1690,11.688
1690,11.688
1690,11.688
1690,11.688
1700,11.6886
1700,11.6886
1700,11.6886
1700,11.6886
1700,11.6886
1710,11.6892
1710,11.6892
1710,11.6892
1710,11.6892
1710,11.6892
1720,11.6897
1720,11.6897
1720,11.6897
1720,11.6897
1720,11.6897
1730,11.6902
1730,11.6902
1730,11.6902
1730,11.6902
1730,11.6902
1740,11.6907
1740,11.6907
1740,11.6907
1740,11.6907
1740,11.6907
1750,11.6911
1750,11.6911
1750,11.6911
1750,11.6911
1750,11.6911
1760,11.6916
1760,11.6916
1760,11.6916
1760,11.6916
1760,11.6916
1770,11.692
1770,11.692
1770,11.692
1770,11.692
1770,11.692
1780,11.6923
1780,11.6923
1780,11.6923
1780,11.6923
1780,11.6923
1790,11.6927
1790,11.6927
1790,11.6927
1790,11.6927
1790,11.6927
1800,11.693
1800,11.693
1800,11.693