File: results/E_Glass/E_Glass_linear_tga_M_BT/E_GlassLinearVirtual.csv
# Time [s],Mass [Kg/kg],BT [C],FT [C]
0.00000000000E+00,1,25,25
2,1,25,45.8225
4,1,25,67.391
6,1,25,82.6094
8,1,25.0002,94.8137
10,1,25.0016,105.18
12,1,25.0072,114.277
14,1,25.0241,122.43
16,1,25.0626,129.844
18,1,25.1359,136.661
20,1,25.2577,142.981
22,1,25.4408,148.879
24,1,25.6963,154.415
26,1,26.0332,159.632
28,1,26.4581,164.569
30,1,26.9753,169.256
32,1,27.5872,173.719
34,1,28.2947,177.977
36,1,29.0973,182.051
38,1,29.9934,185.955
40,1,30.9808,189.704
42,1,32.0563,193.309
44,1,33.2167,196.782
46,1,34.4583,200.131
48,1,35.7771,203.366
50,1,37.1693,206.494
52,1,38.6307,209.522
54,1,40.1575,212.457
56,1,41.7457,215.305
58,1,43.3914,218.072
60,1,45.0911,220.762
62,1,46.8411,223.38
64,1,48.6379,225.931
66,1,50.4784,228.419
68,1,52.3593,230.848
70,1,54.2777,233.221
72,1,56.2307,235.543
74,1,58.2157,237.816
76,1,60.23,240.043
78,1,62.2713,242.227
80,1,64.3372,244.372
82,1,66.4257,246.479
84,1,68.5346,248.551
86,1,70.6621,250.589
88,0.999999,72.8064,252.595
90,0.999999,74.9656,254.57
92,0.999999,77.1382,256.516
94,0.999999,79.3227,258.433
96,0.999999,81.5177,260.322
98,0.999999,83.7217,262.185
100,0.999999,85.9335,264.019
102,0.999998,88.152,265.826
104,0.999998,90.3759,267.607
106,0.999998,92.6042,269.36
108,0.999997,94.836,271.088
110,0.999997,97.0702,272.79
112,0.999996,99.306,274.465
114,0.999996,101.543,276.116
116,0.999995,103.779,277.743
118,0.999994,106.015,279.346
120,0.999993,108.249,280.926
122,0.999992,110.482,282.485
124,0.999991,112.711,284.021
126,0.99999,114.938,285.538
128,0.999989,117.16,287.034
130,0.999987,119.379,288.512
132,0.999986,121.593,289.973
134,0.999984,123.801,291.415
136,0.999982,126.004,292.841
138,0.99998,128.202,294.252
140,0.999977,130.393,295.647
142,0.999974,132.578,297.027
144,0.999971,134.756,298.393
146,0.999968,136.927,299.745
148,0.999964,139.091,301.084
150,0.99996,141.247,302.41
152,0.999956,143.396,303.723
154,0.999951,145.536,305.024
156,0.999946,147.669,306.314
158,0.99994,149.793,307.591
160,0.999934,151.909,308.857
162,0.999927,154.016,310.113
164,0.999919,156.115,311.357
166,0.999911,158.205,312.59
168,0.999902,160.285,313.813
170,0.999892,162.357,315.026
172,0.999882,164.42,316.227
174,0.999871,166.473,317.42
176,0.999858,168.517,318.602
178,0.999845,170.551,319.774
180,0.99983,172.577,320.937
182,0.999815,174.592,322.09
184,0.999798,176.598,323.234
186,0.99978,178.594,324.368
188,0.99976,180.58,325.493
190,0.999739,182.557,326.608
192,0.999716,184.524,327.714
194,0.999692,186.481,328.811
196,0.999666,188.428,329.898
198,0.999638,190.365,330.977
200,0.999607,192.292,332.046
202,0.999575,194.209,333.107
204,0.99954,196.116,334.158
206,0.999503,198.012,335.2
208,0.999464,199.899,336.234
210,0.999421,201.776,337.258
212,0.999376,203.642,338.274
214,0.999328,205.499,339.28
216,0.999276,207.345,340.278
218,0.999221,209.18,341.266
220,0.999163,211.006,342.246
222,0.999101,212.821,343.217
224,0.999035,214.626,344.179
226,0.998965,216.421,345.131
228,0.998891,218.206,346.075
230,0.998812,219.98,347.01
232,0.998729,221.744,347.936
234,0.99864,223.497,348.853
236,0.998547,225.24,349.761
238,0.998448,226.973,350.66
240,0.998343,228.695,351.55
242,0.998233,230.407,352.431
244,0.998117,232.108,353.303
246,0.997994,233.799,354.166
248,0.997865,235.479,355.02
250,0.997729,237.149,355.865
252,0.997586,238.808,356.701
254,0.997435,240.457,357.528
256,0.997277,242.095,358.346
258,0.997112,243.723,359.155
260,0.996938,245.34,359.955
262,0.996755,246.947,360.746
264,0.996564,248.543,361.528
266,0.996364,250.128,362.301
268,0.996155,251.703,363.066
270,0.995936,253.267,363.821
272,0.995708,254.82,364.568
274,0.99547,256.363,365.306
276,0.995221,257.896,366.035
278,0.994962,259.417,366.756
280,0.994692,260.928,367.467
282,0.994412,262.428,368.171
284,0.99412,263.918,368.866
286,0.993816,265.397,369.553
288,0.993501,266.865,370.231
290,0.993173,268.322,370.901
292,0.992834,269.769,371.563
294,0.992482,271.205,372.217
296,0.992117,272.63,372.863
298,0.99174,274.044,373.501
300,0.991349,275.447,374.131
302,0.990945,276.84,374.754
304,0.990528,278.221,375.369
306,0.990097,279.591,375.977
308,0.989652,280.95,376.577
310,0.989193,282.298,377.171
312,0.98872,283.635,377.757
314,0.988233,284.96,378.337
316,0.987732,286.274,378.91
318,0.987215,287.576,379.476
320,0.986685,288.867,380.036
322,0.986139,290.147,380.59
324,0.985579,291.415,381.137
326,0.985003,292.671,381.679
328,0.984413,293.915,382.215
330,0.983807,295.148,382.744
332,0.983186,296.368,383.269
334,0.98255,297.577,383.789
336,0.981899,298.773,384.302
338,0.981232,299.958,384.811
340,0.98055,301.13,385.315
342,0.979852,302.29,385.814
344,0.979139,303.437,386.309
346,0.978411,304.572,386.798
348,0.977667,305.695,387.284
350,0.976907,306.805,387.765
352,0.976133,307.903,388.242
354,0.975342,308.988,388.715
356,0.974537,310.06,389.185
358,0.973716,311.119,389.651
360,0.97288,312.166,390.112
362,0.972028,313.199,390.571
364,0.971161,314.22,391.026
366,0.970279,315.228,391.479
368,0.969382,316.223,391.927
370,0.968471,317.204,392.372
372,0.967544,318.173,392.815
374,0.966602,319.128,393.254
376,0.965646,320.071,393.691
378,0.964675,321,394.125
380,0.963689,321.916,394.557
382,0.96269,322.818,394.986
384,0.961676,323.708,395.412
386,0.960647,324.584,395.836
388,0.959605,325.447,396.257
390,0.95855,326.297,396.676
392,0.95748,327.133,397.093
394,0.956397,327.957,397.506
396,0.955301,328.767,397.919
398,0.954192,329.564,398.329
400,0.953069,330.348,398.736
402,0.951934,331.119,399.142
404,0.950787,331.877,399.546
406,0.949627,332.622,399.947
408,0.948455,333.354,400.346
410,0.947271,334.073,400.743
412,0.946075,334.779,401.139
414,0.944868,335.473,401.532
416,0.94365,336.155,401.923
418,0.942421,336.824,402.311
420,0.941181,337.48,402.698
422,0.939931,338.125,403.083
424,0.938671,338.757,403.464
426,0.937401,339.377,403.844
428,0.936121,339.986,404.223
430,0.934832,340.582,404.598
432,0.933533,341.168,404.972
434,0.932227,341.742,405.344
436,0.930911,342.304,405.713
438,0.929588,342.856,406.08
440,0.928256,343.396,406.445
442,0.926917,343.926,406.808
444,0.925571,344.445,407.168
446,0.924218,344.954,407.526
448,0.922858,345.453,407.882
450,0.921492,345.942,408.235
452,0.92012,346.421,408.585
454,0.918743,346.891,408.933
456,0.91736,347.351,409.279
458,0.915971,347.802,409.622
460,0.914579,348.244,409.964
462,0.913181,348.677,410.302
464,0.91178,349.101,410.638
466,0.910374,349.518,410.972
468,0.908966,349.926,411.301
470,0.907553,350.326,411.63
472,0.906138,350.719,411.956
474,0.904721,351.104,412.279
476,0.903301,351.481,412.6
478,0.901879,351.852,412.919
480,0.900455,352.216,413.233
482,0.89903,352.573,413.547
484,0.897604,352.924,413.857
486,0.896176,353.269,414.165
488,0.894748,353.607,414.469
490,0.89332,353.94,414.773
492,0.891891,354.267,415.074
494,0.890463,354.589,415.372
496,0.889035,354.905,415.666
498,0.887608,355.217,415.959
500,0.886181,355.523,416.25
502,0.884756,355.825,416.539
504,0.883332,356.123,416.823
506,0.881909,356.416,417.106
508,0.880488,356.705,417.388
510,0.879069,356.99,417.666
512,0.877653,357.271,417.942
514,0.876238,357.549,418.216
516,0.874827,357.823,418.488
518,0.873417,358.094,418.756
520,0.872011,358.362,419.025
522,0.870608,358.627,419.29
524,0.869209,358.889,419.552
526,0.867812,359.149,419.812
528,0.866419,359.405,420.072
530,0.865031,359.66,420.327
532,0.863645,359.912,420.582
534,0.862264,360.162,420.835
536,0.860887,360.41,421.085
538,0.859515,360.656,421.333
540,0.858147,360.901,421.579
542,0.856783,361.143,421.824
544,0.855424,361.385,422.067
546,0.85407,361.625,422.307
548,0.852721,361.863,422.547
550,0.851377,362.1,422.784
552,0.850038,362.336,423.019
554,0.848704,362.572,423.253
556,0.847375,362.806,423.484
558,0.846052,363.039,423.715
560,0.844734,363.272,423.944
562,0.843422,363.504,424.171
564,0.842116,363.736,424.397
566,0.840815,363.967,424.621
568,0.83952,364.197,424.843
570,0.838231,364.427,425.064
572,0.836948,364.658,425.283
574,0.83567,364.887,425.5
576,0.834399,365.117,425.718
578,0.833134,365.347,425.933
580,0.831875,365.577,426.147
582,0.830623,365.807,426.359
584,0.829377,366.037,426.569
586,0.828137,366.267,426.78
588,0.826903,366.498,426.988
590,0.825676,366.729,427.196
592,0.824455,366.961,427.401
594,0.823241,367.193,427.606
596,0.822034,367.425,427.809
598,0.820833,367.658,428.011
600,0.819638,367.892,428.212
602,0.818451,368.126,428.413
604,0.81727,368.362,428.612
606,0.816096,368.597,428.81
608,0.814928,368.834,429.007
610,0.813768,369.072,429.203
612,0.812614,369.31,429.397
614,0.811467,369.55,429.592
616,0.810328,369.791,429.784
618,0.809195,370.032,429.977
620,0.808069,370.275,430.167
622,0.80695,370.519,430.358
624,0.805838,370.764,430.546
626,0.804734,371.011,430.735
628,0.803636,371.258,430.922
630,0.802545,371.507,431.109
632,0.801462,371.758,431.295
634,0.800386,372.01,431.48
636,0.799317,372.263,431.664
638,0.798256,372.517,431.848
640,0.797201,372.774,432.031
642,0.796154,373.031,432.212
644,0.795115,373.291,432.394
646,0.794082,373.552,432.574
648,0.793058,373.815,432.754
650,0.79204,374.079,432.934
652,0.79103,374.345,433.113
654,0.790028,374.613,433.291
656,0.789033,374.883,433.469
658,0.788045,375.155,433.646
660,0.787066,375.429,433.821
662,0.786093,375.704,433.997
664,0.785129,375.982,434.172
666,0.784172,376.262,434.347
668,0.783223,376.544,434.521
670,0.782281,376.828,434.696
672,0.781348,377.114,434.868
674,0.780422,377.402,435.042
676,0.779504,377.692,435.213
678,0.778594,377.985,435.385
680,0.777692,378.28,435.557
682,0.776798,378.578,435.728
684,0.775912,378.878,435.898
686,0.775034,379.18,436.069
688,0.774164,379.485,436.239
690,0.773302,379.793,436.409
692,0.772449,380.103,436.577
694,0.771603,380.415,436.747
696,0.770766,380.731,436.915
698,0.769937,381.049,437.085
700,0.769117,381.37,437.252
702,0.768305,381.693,437.421
704,0.767501,382.02,437.588
706,0.766706,382.349,437.755
708,0.76592,382.681,437.923
710,0.765142,383.017,438.09
712,0.764372,383.355,438.258
714,0.763612,383.697,438.424
716,0.76286,384.041,438.59
718,0.762117,384.389,438.757
720,0.761383,384.74,438.923
722,0.760657,385.095,439.09
724,0.759941,385.453,439.256
726,0.759234,385.814,439.423
728,0.758536,386.178,439.589
730,0.757847,386.546,439.754
732,0.757167,386.918,439.921
734,0.756496,387.293,440.086
736,0.755835,387.672,440.253
738,0.755183,388.055,440.418
740,0.75454,388.441,440.585
742,0.753907,388.831,440.751
744,0.753284,389.225,440.917
746,0.75267,389.623,441.084
748,0.752066,390.024,441.25
750,0.751471,390.43,441.417
752,0.750887,390.84,441.583
754,0.750312,391.254,441.749
756,0.749747,391.672,441.917
758,0.749192,392.094,442.084
760,0.748647,392.52,442.251
762,0.748112,392.951,442.418
764,0.747587,393.386,442.586
766,0.747073,393.825,442.754
768,0.746568,394.268,442.921
770,0.746074,394.716,443.09
772,0.745591,395.168,443.258
774,0.745117,395.625,443.428
776,0.744654,396.086,443.597
778,0.744202,396.552,443.765
780,0.74376,397.022,443.936
782,0.743329,397.497,444.105
784,0.742908,397.976,444.276
786,0.742498,398.459,444.447
788,0.742098,398.947,444.618
790,0.741709,399.44,444.79
792,0.741331,399.937,444.961
794,0.740964,400.438,445.134
796,0.740607,400.944,445.306
798,0.740261,401.454,445.479
800,0.739925,401.969,445.653
802,0.7396,402.487,445.827
804,0.739286,403.01,446.001
806,0.738982,403.537,446.176
808,0.738689,404.069,446.352
810,0.738406,404.604,446.527
812,0.738134,405.142,446.704
814,0.737872,405.685,446.88
816,0.737621,406.231,447.058
818,0.73738,406.781,447.235
820,0.737148,407.334,447.414
822,0.736927,407.89,447.592
824,0.736716,408.449,447.771
826,0.736514,409.01,447.95
828,0.736322,409.575,448.13
830,0.73614,410.141,448.311
832,0.735966,410.71,448.492
834,0.735802,411.281,448.674
836,0.735647,411.854,448.856
838,0.7355,412.427,449.038
840,0.735362,413.002,449.221
842,0.735232,413.578,449.404
844,0.73511,414.155,449.588
846,0.734996,414.732,449.772
848,0.73489,415.308,449.957
850,0.73479,415.885,450.141
852,0.734698,416.461,450.327
854,0.734612,417.036,450.512
856,0.734533,417.61,450.698
858,0.73446,418.182,450.884
860,0.734393,418.753,451.071
862,0.734331,419.321,451.257
864,0.734274,419.888,451.444
866,0.734223,420.451,451.631
868,0.734176,421.012,451.818
870,0.734133,421.569,452.005
872,0.734095,422.123,452.192
874,0.73406,422.674,452.379
876,0.734029,423.221,452.566
878,0.734001,423.763,452.753
880,0.733976,424.302,452.94
882,0.733954,424.836,453.127
884,0.733934,425.365,453.313
886,0.733917,425.89,453.5
888,0.733901,426.41,453.685
890,0.733888,426.926,453.871
892,0.733876,427.436,454.056
894,0.733866,427.941,454.241
896,0.733857,428.442,454.425
898,0.73385,428.937,454.609
900,0.733843,429.427,454.792
902,0.733838,429.913,454.975
904,0.733833,430.393,455.156
906,0.733829,430.868,455.338
908,0.733825,431.338,455.518
910,0.733822,431.803,455.697
912,0.73382,432.264,455.876
914,0.733818,432.719,456.054
916,0.733816,433.17,456.231
918,0.733815,433.616,456.407
920,0.733814,434.057,456.583
922,0.733813,434.494,456.756
924,0.733812,434.926,456.93
926,0.733811,435.354,457.102
928,0.733811,435.777,457.272
930,0.73381,436.196,457.443
932,0.73381,436.611,457.611
934,0.73381,437.022,457.779
936,0.733809,437.429,457.945
938,0.733809,437.831,458.111
940,0.733809,438.23,458.275
942,0.733809,438.624,458.437
944,0.733809,439.015,458.599
946,0.733809,439.402,458.76
948,0.733809,439.786,458.919
950,0.733809,440.165,459.077
952,0.733809,440.541,459.233
954,0.733809,440.914,459.389
956,0.733809,441.283,459.544
958,0.733809,441.648,459.697
960,0.733809,442.01,459.849
962,0.733809,442.369,459.999
964,0.733809,442.724,460.149
966,0.733809,443.076,460.296
968,0.733809,443.424,460.443
970,0.733809,443.77,460.589
972,0.733809,444.112,460.733
974,0.733809,444.451,460.877
976,0.733809,444.787,461.018
978,0.733809,445.119,461.159
980,0.733809,445.449,461.299
982,0.733809,445.776,461.437
984,0.733809,446.099,461.574
986,0.733809,446.42,461.71
988,0.733809,446.738,461.845
990,0.733809,447.053,461.978
992,0.733809,447.365,462.111
994,0.733809,447.674,462.242
996,0.733809,447.98,462.372
998,0.733809,448.283,462.501
1000,0.733809,448.584,462.628
1000,0.733809,448.584,462.628
1000,0.733809,448.584,462.628
1010,0.733809,450.047,463.251
1010,0.733809,450.047,463.251
1010,0.733809,450.047,463.251
1010,0.733809,450.047,463.251
1010,0.733809,450.047,463.251
1020,0.733809,451.444,463.845
1020,0.733809,451.444,463.845
1020,0.733809,451.444,463.845
1020,0.733809,451.444,463.845
1020,0.733809,451.444,463.845
1030,0.733809,452.778,464.414
1030,0.733809,452.778,464.414
1030,0.733809,452.778,464.414
1030,0.733809,452.778,464.414
1030,0.733809,452.778,464.414
1040,0.733809,454.052,464.956
1040,0.733809,454.052,464.956
1040,0.733809,454.052,464.956
1040,0.733809,454.052,464.956
1040,0.733809,454.052,464.956
1050,0.733809,455.27,465.475
1050,0.733809,455.27,465.475
1050,0.733809,455.27,465.475
1050,0.733809,455.27,465.475
1050,0.733809,455.27,465.475
1060,0.733809,456.432,465.972
1060,0.733809,456.432,465.972
1060,0.733809,456.432,465.972
1060,0.733809,456.432,465.972
1060,0.733809,456.432,465.972
1070,0.733809,457.542,466.445
1070,0.733809,457.542,466.445
1070,0.733809,457.542,466.445
1070,0.733809,457.542,466.445
1070,0.733809,457.542,466.445
1080,0.733809,458.602,466.898
1080,0.733809,458.602,466.898
1080,0.733809,458.602,466.898
1080,0.733809,458.602,466.898
1080,0.733809,458.602,466.898
1090,0.733809,459.615,467.33
1090,0.733809,459.615,467.33
1090,0.733809,459.615,467.33
1090,0.733809,459.615,467.33
1090,0.733809,459.615,467.33
1100,0.733809,460.582,467.742
1100,0.733809,460.582,467.742
1100,0.733809,460.582,467.742
1100,0.733809,460.582,467.742
1100,0.733809,460.582,467.742
1110,0.733809,461.505,468.137
1110,0.733809,461.505,468.137
1110,0.733809,461.505,468.137
1110,0.733809,461.505,468.137
1110,0.733809,461.505,468.137
1120,0.733809,462.386,468.513
1120,0.733809,462.386,468.513
1120,0.733809,462.386,468.513
1120,0.733809,462.386,468.513
1120,0.733809,462.386,468.513
1130,0.733809,463.227,468.873
1130,0.733809,463.227,468.873
1130,0.733809,463.227,468.873
1130,0.733809,463.227,468.873
1130,0.733809,463.227,468.873
1140,0.733809,464.031,469.217
1140,0.733809,464.031,469.217
1140,0.733809,464.031,469.217
1140,0.733809,464.031,469.217
1140,0.733809,464.031,469.217
1150,0.733809,464.797,469.544
1150,0.733809,464.797,469.544
1150,0.733809,464.797,469.544
1150,0.733809,464.797,469.544
1150,0.733809,464.797,469.544
1160,0.733809,465.529,469.857
1160,0.733809,465.529,469.857
1160,0.733809,465.529,469.857
1160,0.733809,465.529,469.857
1160,0.733809,465.529,469.857
1170,0.733809,466.228,470.156
1170,0.733809,466.228,470.156
1170,0.733809,466.228,470.156
1170,0.733809,466.228,470.156
1170,0.733809,466.228,470.156
1180,0.733809,466.895,470.442
1180,0.733809,466.895,470.442
1180,0.733809,466.895,470.442
1180,0.733809,466.895,470.442
1180,0.733809,466.895,470.442
1190,0.733809,467.532,470.714
1190,0.733809,467.532,470.714
1190,0.733809,467.532,470.714
1190,0.733809,467.532,470.714
1190,0.733809,467.532,470.714
1200,0.733809,468.14,470.974
1200,0.733809,468.14,470.974
1200,0.733809,468.14,470.974
1200,0.733809,468.14,470.974
1200,0.733809,468.14,470.974
1210,0.733809,468.72,471.222
1210,0.733809,468.72,471.222
1210,0.733809,468.72,471.222
1210,0.733809,468.72,471.222
1210,0.733809,468.72,471.222
1220,0.733809,469.273,471.459
1220,0.733809,469.273,471.459
1220,0.733809,469.273,471.459
1220,0.733809,469.273,471.459
1220,0.733809,469.273,471.459
1230,0.733809,469.802,471.685
1230,0.733809,469.802,471.685
1230,0.733809,469.802,471.685
1230,0.733809,469.802,471.685
1230,0.733809,469.802,471.685
1240,0.733809,470.306,471.901
1240,0.733809,470.306,471.901
1240,0.733809,470.306,471.901
1240,0.733809,470.306,471.901
1240,0.733809,470.306,471.901
1250,0.733809,470.787,472.107
1250,0.733809,470.787,472.107
1250,0.733809,470.787,472.107
1250,0.733809,470.787,472.107
1250,0.733809,470.787,472.107
1260,0.733809,471.247,472.304
1260,0.733809,471.247,472.304
1260,0.733809,471.247,472.304
1260,0.733809,471.247,472.304
1260,0.733809,471.247,472.304
1270,0.733809,471.685,472.491
1270,0.733809,471.685,472.491
1270,0.733809,471.685,472.491
1270,0.733809,471.685,472.491
1270,0.733809,471.685,472.491
1280,0.733809,472.103,472.671
1280,0.733809,472.103,472.671
1280,0.733809,472.103,472.671
1280,0.733809,472.103,472.671
1280,0.733809,472.103,472.671
1290,0.733809,472.502,472.842
1290,0.733809,472.502,472.842
1290,0.733809,472.502,472.842
1290,0.733809,472.502,472.842
1290,0.733809,472.502,472.842
1300,0.733809,472.883,473.004
1300,0.733809,472.883,473.004
1300,0.733809,472.883,473.004
1300,0.733809,472.883,473.004
1300,0.733809,472.883,473.004
1310,0.733809,473.247,473.161
1310,0.733809,473.247,473.161
1310,0.733809,473.247,473.161
1310,0.733809,473.247,473.161
1310,0.733809,473.247,473.161
1320,0.733809,473.593,473.309
1320,0.733809,473.593,473.309
1320,0.733809,473.593,473.309
1320,0.733809,473.593,473.309
1320,0.733809,473.593,473.309
1330,0.733809,473.924,473.45
1330,0.733809,473.924,473.45
1330,0.733809,473.924,473.45
1330,0.733809,473.924,473.45
1330,0.733809,473.924,473.45
1340,0.733809,474.24,473.586
1340,0.733809,474.24,473.586
1340,0.733809,474.24,473.586
1340,0.733809,474.24,473.586
1340,0.733809,474.24,473.586
1350,0.733809,474.541,473.715
1350,0.733809,474.541,473.715
1350,0.733809,474.541,473.715
1350,0.733809,474.541,473.715
1350,0.733809,474.541,473.715
1360,0.733809,474.829,473.838
1360,0.733809,474.829,473.838
1360,0.733809,474.829,473.838
1360,0.733809,474.829,473.838
1360,0.733809,474.829,473.838
1370,0.733809,475.103,473.956
1370,0.733809,475.103,473.956
1370,0.733809,475.103,473.956
1370,0.733809,475.103,473.956
1370,0.733809,475.103,473.956
1380,0.733809,475.365,474.068
1380,0.733809,475.365,474.068
1380,0.733809,475.365,474.068
1380,0.733809,475.365,474.068
1380,0.733809,475.365,474.068
1390,0.733809,475.614,474.175
1390,0.733809,475.614,474.175
1390,0.733809,475.614,474.175
1390,0.733809,475.614,474.175
1390,0.733809,475.614,474.175
1400,0.733809,475.853,474.278
1400,0.733809,475.853,474.278
1400,0.733809,475.853,474.278
1400,0.733809,475.853,474.278
1400,0.733809,475.853,474.278
1410,0.733809,476.08,474.375
1410,0.733809,476.08,474.375
1410,0.733809,476.08,474.375
1410,0.733809,476.08,474.375
1410,0.733809,476.08,474.375
1420,0.733809,476.297,474.468
1420,0.733809,476.297,474.468
1420,0.733809,476.297,474.468
1420,0.733809,476.297,474.468
1420,0.733809,476.297,474.468
1430,0.733809,476.504,474.556
1430,0.733809,476.504,474.556
1430,0.733809,476.504,474.556
1430,0.733809,476.504,474.556
1430,0.733809,476.504,474.556
1440,0.733809,476.701,474.641
1440,0.733809,476.701,474.641
1440,0.733809,476.701,474.641
1440,0.733809,476.701,474.641
1440,0.733809,476.701,474.641
1450,0.733809,476.889,474.722
1450,0.733809,476.889,474.722
1450,0.733809,476.889,474.722
1450,0.733809,476.889,474.722
1450,0.733809,476.889,474.722
1460,0.733809,477.069,474.799
1460,0.733809,477.069,474.799
1460,0.733809,477.069,474.799
1460,0.733809,477.069,474.799
1460,0.733809,477.069,474.799
1470,0.733809,477.24,474.872
1470,0.733809,477.24,474.872
1470,0.733809,477.24,474.872
1470,0.733809,477.24,474.872
1470,0.733809,477.24,474.872
1480,0.733809,477.404,474.942
1480,0.733809,477.404,474.942
1480,0.733809,477.404,474.942
1480,0.733809,477.404,474.942
1480,0.733809,477.404,474.942
1490,0.733809,477.56,475.009
1490,0.733809,477.56,475.009
1490,0.733809,477.56,475.009
1490,0.733809,477.56,475.009
1490,0.733809,477.56,475.009
1500,0.733809,477.708,475.074
1500,0.733809,477.708,475.074
1500,0.733809,477.708,475.074
1500,0.733809,477.708,475.074
1500,0.733809,477.708,475.074
1510,0.733809,477.85,475.134
1510,0.733809,477.85,475.134
1510,0.733809,477.85,475.134
1510,0.733809,477.85,475.134
1510,0.733809,477.85,475.134
1520,0.733809,477.986,475.192
1520,0.733809,477.986,475.192
1520,0.733809,477.986,475.192
1520,0.733809,477.986,475.192
1520,0.733809,477.986,475.192
1530,0.733809,478.115,475.247
1530,0.733809,478.115,475.247
1530,0.733809,478.115,475.247
1530,0.733809,478.115,475.247
1530,0.733809,478.115,475.247
1540,0.733809,478.238,475.3
1540,0.733809,478.238,475.3
1540,0.733809,478.238,475.3
1540,0.733809,478.238,475.3
1540,0.733809,478.238,475.3
1550,0.733809,478.356,475.35
1550,0.733809,478.356,475.35
1550,0.733809,478.356,475.35
1550,0.733809,478.356,475.35
1550,0.733809,478.356,475.35
1560,0.733809,478.468,475.398
1560,0.733809,478.468,475.398
1560,0.733809,478.468,475.398
1560,0.733809,478.468,475.398
1560,0.733809,478.468,475.398
1570,0.733809,478.575,475.445
1570,0.733809,478.575,475.445
1570,0.733809,478.575,475.445
1570,0.733809,478.575,475.445
1570,0.733809,478.575,475.445
1580,0.733809,478.677,475.489
1580,0.733809,478.677,475.489
1580,0.733809,478.677,475.489
1580,0.733809,478.677,475.489
1580,0.733809,478.677,475.489
1590,0.733809,478.774,475.531
1590,0.733809,478.774,475.531
1590,0.733809,478.774,475.531
1590,0.733809,478.774,475.531
1590,0.733809,478.774,475.531
1600,0.733809,478.867,475.57
1600,0.733809,478.867,475.57
1600,0.733809,478.867,475.57
1600,0.733809,478.867,475.57
1600,0.733809,478.867,475.57
1610,0.733809,478.956,475.608
1610,0.733809,478.956,475.608
1610,0.733809,478.956,475.608
1610,0.733809,478.956,475.608
1610,0.733809,478.956,475.608
1620,0.733809,479.04,475.644
1620,0.733809,479.04,475.644
1620,0.733809,479.04,475.644
1620,0.733809,479.04,475.644
1620,0.733809,479.04,475.644
1630,0.733809,479.121,475.679
1630,0.733809,479.121,475.679
1630,0.733809,479.121,475.679
1630,0.733809,479.121,475.679
1630,0.733809,479.121,475.679
1640,0.733809,479.198,475.712
1640,0.733809,479.198,475.712
1640,0.733809,479.198,475.712
1640,0.733809,479.198,475.712
1640,0.733809,479.198,475.712
1650,0.733809,479.271,475.743
1650,0.733809,479.271,475.743
1650,0.733809,479.271,475.743
1650,0.733809,479.271,475.743
1650,0.733809,479.271,475.743
1660,0.733809,479.341,475.773
1660,0.733809,479.341,475.773
1660,0.733809,479.341,475.773
1660,0.733809,479.341,475.773
1660,0.733809,479.341,475.773
1670,0.733809,479.408,475.801
1670,0.733809,479.408,475.801
1670,0.733809,479.408,475.801
1670,0.733809,479.408,475.801
1670,0.733809,479.408,475.801
1680,0.733809,479.471,475.83
1680,0.733809,479.471,475.83
1680,0.733809,479.471,475.83
1680,0.733809,479.471,475.83
1680,0.733809,479.471,475.83
1690,0.733809,479.532,475.856
1690,0.733809,479.532,475.856
1690,0.733809,479.532,475.856
1690,0.733809,479.532,475.856
1690,0.733809,479.532,475.856
1700,0.733809,479.59,475.881
1700,0.733809,479.59,475.881
1700,0.733809,479.59,475.881
1700,0.733809,479.59,475.881
1700,0.733809,479.59,475.881
1710,0.733809,479.645,475.904
1710,0.733809,479.645,475.904
1710,0.733809,479.645,475.904
1710,0.733809,479.645,475.904
1710,0.733809,479.645,475.904
1720,0.733809,479.698,475.927
1720,0.733809,479.698,475.927
1720,0.733809,479.698,475.927
1720,0.733809,479.698,475.927
1720,0.733809,479.698,475.927
1730,0.733809,479.748,475.948
1730,0.733809,479.748,475.948
1730,0.733809,479.748,475.948
1730,0.733809,479.748,475.948
1730,0.733809,479.748,475.948
1740,0.733809,479.796,475.969
1740,0.733809,479.796,475.969
1740,0.733809,479.796,475.969
1740,0.733809,479.796,475.969
1740,0.733809,479.796,475.969
1750,0.733809,479.842,475.988
1750,0.733809,479.842,475.988
1750,0.733809,479.842,475.988
1750,0.733809,479.842,475.988
1750,0.733809,479.842,475.988
1760,0.733809,479.886,476.007
1760,0.733809,479.886,476.007
1760,0.733809,479.886,476.007
1760,0.733809,479.886,476.007
1760,0.733809,479.886,476.007
1770,0.733809,479.927,476.025
1770,0.733809,479.927,476.025
1770,0.733809,479.927,476.025
1770,0.733809,479.927,476.025
1770,0.733809,479.927,476.025
1780,0.733809,479.967,476.042
1780,0.733809,479.967,476.042
1780,0.733809,479.967,476.042
1780,0.733809,479.967,476.042
1780,0.733809,479.967,476.042
1790,0.733809,480.005,476.058
1790,0.733809,480.005,476.058
1790,0.733809,480.005,476.058
1790,0.733809,480.005,476.058
1790,0.733809,480.005,476.058
1800,0.733809,480.041,476.074
1800,0.733809,480.041,476.074
1800,0.733809,480.041,476.074