File: results/E_Glass/E_Glass_linear_tga_M_BT/E_Glass_linear_tga_M_BT_progressMonitor.csv
Loop,Time,r0-A,p0-C0,p1-C0,p0-Cpa,p1-Cpa,p0-Cpb,p1-Cpb,r0-E,r0-Hp,p0-K,p1-K,Value,r0-Xi,p0-eps,p1-eps,p0-ka,p1-ka,p0-kb,p1-kb,r0-n,r0-nO2,p0-rho,p1-rho,
-1,0,2.50e+12,1.0,0.0,623.778,1820.29,0.158725,0.552521,1.85e+05,118502,10665.6,100000000.0,0.00106981,0.733809,0.722205,0.94,0.214887,0.215425,3.6565e-05,0.000303263,0.981742,0.0,1683.0,1235.0,
2,198.2849,2.40e+12,1.0,0.0,916.576,1460.6,0.0884525,0.495156,1.82e+05,102567,20784.3,100000000.0,0.000489311,0.733809,0.843927,0.94,0.243625,0.155622,4.31336e-05,0.000550526,0.972554,0.0,1683.0,1235.0,
5,419.7760,2.38e+12,1.0,0.0,916.727,1344.44,0.0861497,0.447733,1.81e+05,113871,22326.1,100000000.0,0.000293572,0.733809,0.841543,0.94,0.262253,0.129757,5.20617e-05,0.000468451,0.992838,0.0,1683.0,1235.0,
8,643.2190,2.29e+12,1.0,0.0,991.749,907.124,0.0960743,0.428733,1.80e+05,103866,19774.9,100000000.0,0.000108638,0.733809,0.896302,0.94,0.285802,0.0559221,4.75833e-05,0.00033586,1.01201,0.0,1683.0,1235.0,
11,877.9582,2.30e+12,1.0,0.0,986.682,908.644,0.0987008,0.43304,1.81e+05,102522,20179.6,100000000.0,5.54936e-05,0.733809,0.895603,0.94,0.288414,0.0655749,4.84725e-05,0.000335729,1.00866,0.0,1683.0,1235.0,
14,1145.94,2.33e+12,1.0,0.0,1022.18,917.87,0.109167,0.418909,1.81e+05,99943,22401.9,100000000.0,3.40433e-05,0.733809,0.918745,0.94,0.298813,0.0837816,5.51231e-05,0.000288489,0.995338,0.0,1683.0,1235.0,
17,1415.81,2.42e+12,1.0,0.0,1067.2,909.926,0.132221,0.414783,1.81e+05,98653.1,24706,100000000.0,2.60239e-05,0.733809,0.957547,0.94,0.3112,0.085518,6.45992e-05,0.000280503,0.983709,0.0,1683.0,1235.0,
20,1673.66,2.39e+12,1.0,0.0,1065.3,884.168,0.123726,0.472178,1.81e+05,98191.2,24132.3,100000000.0,2.01306e-05,0.733809,0.954239,0.94,0.313025,0.0537008,5.48185e-05,0.000330543,0.996779,0.0,1683.0,1235.0,
23,1922.61,2.37e+12,1.0,0.0,1078.89,847.397,0.116187,0.52467,1.81e+05,97866.1,22959.1,100000000.0,1.73554e-05,0.733809,0.961572,0.94,0.319871,0.0260979,4.73492e-05,0.000368406,1.00476,0.0,1683.0,1235.0,
26,2175.8,2.38e+12,1.0,0.0,1084.4,904.331,0.11529,0.445758,1.81e+05,98024,21681.5,100000000.0,1.6367e-05,0.733809,0.96512,0.94,0.320668,0.0329849,4.94346e-05,0.00036004,1.00681,0.0,1683.0,1235.0,
29,2417.66,2.35e+12,1.0,0.0,1091.27,910.865,0.105874,0.435191,1.81e+05,97998,20276.3,100000000.0,1.50769e-05,0.733809,0.96664,0.94,0.323324,0.0311798,4.58434e-05,0.000362485,1.00932,0.0,1683.0,1235.0,
32,2665.7,2.30e+12,1.0,0.0,1084.32,884.883,0.0595639,0.469833,1.81e+05,99483,15685.8,100000000.0,1.38434e-05,0.733809,0.948064,0.94,0.322264,0.0829248,2.89898e-05,0.000292042,0.999202,0.0,1683.0,1235.0,
35,2906.65,2.33e+12,1.0,0.0,1081.9,908.566,0.0616566,0.436861,1.81e+05,99579,13686.5,100000000.0,1.28348e-05,0.733809,0.946987,0.94,0.31881,0.0952154,3.41341e-05,0.000274708,0.998377,0.0,1683.0,1235.0,
38,3146.01,2.28e+12,1.0,0.0,1081.27,911.997,0.0715723,0.43522,1.81e+05,99194.4,13431.3,100000000.0,1.22458e-05,0.733809,0.949395,0.94,0.316931,0.0693632,4.04724e-05,0.000310959,1.00259,0.0,1683.0,1235.0,
41,3397.33,2.16e+12,1.0,0.0,1083.31,849.055,0.0717752,0.525031,1.81e+05,99149.9,14122.1,100000000.0,1.17189e-05,0.733809,0.950747,0.94,0.317092,0.0338893,4.20768e-05,0.00036183,1.00338,0.0,1683.0,1235.0,
44,3628.73,2.13e+12,1.0,0.0,1085.97,853.784,0.0631378,0.523531,1.80e+05,99268.6,13573,100000000.0,1.13152e-05,0.733809,0.949983,0.94,0.31834,0.0268896,3.85615e-05,0.00037346,1.00042,0.0,1683.0,1235.0,
47,3858.75,2.13e+12,1.0,0.0,1082.61,852.362,0.0626373,0.526468,1.81e+05,99274.1,13258.1,100000000.0,1.09867e-05,0.733809,0.94763,0.94,0.317391,0.0238419,3.78592e-05,0.000378049,0.998559,0.0,1683.0,1235.0,
50,4093.99,2.12e+12,1.0,0.0,1076.5,940.842,0.0544019,0.406808,1.81e+05,99249.8,12803.9,100000000.0,1.05801e-05,0.733809,0.941029,0.94,0.315883,0.0254626,3.41903e-05,0.000376927,0.992994,0.0,1683.0,1235.0,
53,4328.43,2.11e+12,1.0,0.0,1077.13,948.978,0.0548009,0.395693,1.80e+05,99278.5,12776.1,100000000.0,1.04821e-05,0.733809,0.941615,0.94,0.315917,0.0238127,3.47187e-05,0.000379586,0.993426,0.0,1683.0,1235.0,
56,4572.23,2.11e+12,1.0,0.0,1078.44,946.625,0.0533449,0.398586,1.80e+05,99305.8,12703.4,100000000.0,1.04383e-05,0.733809,0.942052,0.94,0.316233,0.0240417,3.45347e-05,0.000379303,0.992972,0.0,1683.0,1235.0,
59,4806.84,2.11e+12,1.0,0.0,1078.03,954.926,0.0533538,0.387414,1.80e+05,99285.4,12730.8,100000000.0,1.04177e-05,0.733809,0.941732,0.94,0.31607,0.0239258,3.46468e-05,0.00037955,0.992635,0.0,1683.0,1235.0,
62,5035.49,2.11e+12,1.0,0.0,1077.68,964.281,0.0529544,0.374885,1.81e+05,99279.5,12773.3,100000000.0,1.04077e-05,0.733809,0.941338,0.94,0.315964,0.0237763,3.45256e-05,0.000379932,0.991737,0.0,1683.0,1235.0,
65,5270.21,2.11e+12,1.0,0.0,1077.91,960.769,0.0530591,0.379541,1.80e+05,99265,12739.5,100000000.0,6.75011e-06,0.733809,0.94153,0.94,0.316036,0.023763,3.45469e-05,0.000379832,0.992091,0.0,1683.0,1235.0,
68,5526.47,2.11e+12,1.0,0.0,1077.91,960.769,0.0530591,0.379541,1.80e+05,99265,12739.5,100000000.0,6.75011e-06,0.733809,0.94153,0.94,0.316036,0.023763,3.45469e-05,0.000379832,0.992091,0.0,1683.0,1235.0,
71,5777.82,2.11e+12,1.0,0.0,1077.91,960.769,0.0530591,0.379541,1.80e+05,99265,12739.5,100000000.0,6.75011e-06,0.733809,0.94153,0.94,0.316036,0.023763,3.45469e-05,0.000379832,0.992091,0.0,1683.0,1235.0,
74,6034.23,2.11e+12,1.0,0.0,1077.91,960.769,0.0530591,0.379541,1.80e+05,99265,12739.5,100000000.0,6.75011e-06,0.733809,0.94153,0.94,0.316036,0.023763,3.45469e-05,0.000379832,0.992091,0.0,1683.0,1235.0,
77,6295.3,2.11e+12,1.0,0.0,1077.91,960.769,0.0530591,0.379541,1.80e+05,99265,12739.5,100000000.0,6.75011e-06,0.733809,0.94153,0.94,0.316036,0.023763,3.45469e-05,0.000379832,0.992091,0.0,1683.0,1235.0,
80,6551.83,2.15e+12,1.0,0.0,1079.68,968.532,0.0633157,0.365777,1.81e+05,99033.4,13041.7,100000000.0,6.67303e-06,0.733809,0.945848,0.94,0.316497,0.0263464,3.7837e-05,0.00037499,0.993957,0.0,1683.0,1235.0,
83,6801.22,2.12e+12,1.0,0.0,1078.93,958.152,0.0563817,0.382073,1.81e+05,99205.4,12813.2,100000000.0,6.56888e-06,0.733809,0.943256,0.94,0.316308,0.0246064,3.56513e-05,0.000378255,0.992907,0.0,1683.0,1235.0,
86,7062.02,2.11e+12,1.0,0.0,1077.01,963.719,0.0519093,0.375522,1.80e+05,99301.7,12758.5,100000000.0,6.56251e-06,0.733809,0.940622,0.94,0.315818,0.0238167,3.40412e-05,0.000379915,0.991962,0.0,1683.0,1235.0,
89,7320.05,2.11e+12,1.0,0.0,1077.01,963.719,0.0519093,0.375522,1.80e+05,99301.7,12758.5,100000000.0,6.56251e-06,0.733809,0.940622,0.94,0.315818,0.0238167,3.40412e-05,0.000379915,0.991962,0.0,1683.0,1235.0,
92,7586.56,2.11e+12,1.0,0.0,1077.01,963.719,0.0519093,0.375522,1.80e+05,99301.7,12758.5,100000000.0,6.56251e-06,0.733809,0.940622,0.94,0.315818,0.0238167,3.40412e-05,0.000379915,0.991962,0.0,1683.0,1235.0,
95,7852.09,2.16e+12,1.0,0.0,1080.18,972.887,0.0669406,0.358617,1.81e+05,98940.5,13158.3,100000000.0,6.55712e-06,0.733809,0.947276,0.94,0.316622,0.02737,3.90007e-05,0.000373091,0.994754,0.0,1683.0,1235.0,
98,8122.16,2.13e+12,1.0,0.0,1079.88,957.205,0.0604696,0.382168,1.81e+05,99108.9,12943.4,100000000.0,6.45514e-06,0.733809,0.945145,0.94,0.316539,0.0255604,3.70391e-05,0.000376375,0.993989,0.0,1683.0,1235.0,
101,8391.52,2.13e+12,1.0,0.0,1079.88,957.205,0.0604696,0.382168,1.81e+05,99108.9,12943.4,100000000.0,6.45514e-06,0.733809,0.945145,0.94,0.316539,0.0255604,3.70391e-05,0.000376375,0.993989,0.0,1683.0,1235.0,
104,8663.72,2.13e+12,1.0,0.0,1079.88,957.205,0.0604696,0.382168,1.81e+05,99108.9,12943.4,100000000.0,6.45514e-06,0.733809,0.945145,0.94,0.316539,0.0255604,3.70391e-05,0.000376375,0.993989,0.0,1683.0,1235.0,
107,8939.48,2.13e+12,1.0,0.0,1079.88,957.205,0.0604696,0.382168,1.81e+05,99108.9,12943.4,100000000.0,6.45514e-06,0.733809,0.945145,0.94,0.316539,0.0255604,3.70391e-05,0.000376375,0.993989,0.0,1683.0,1235.0,
110,9209.42,2.13e+12,1.0,0.0,1079.88,957.205,0.0604696,0.382168,1.81e+05,99108.9,12943.4,100000000.0,6.45514e-06,0.733809,0.945145,0.94,0.316539,0.0255604,3.70391e-05,0.000376375,0.993989,0.0,1683.0,1235.0,
113,9484.6,2.13e+12,1.0,0.0,1079.88,957.205,0.0604696,0.382168,1.81e+05,99108.9,12943.4,100000000.0,6.45514e-06,0.733809,0.945145,0.94,0.316539,0.0255604,3.70391e-05,0.000376375,0.993989,0.0,1683.0,1235.0,
116,9760.69,2.13e+12,1.0,0.0,1079.88,957.205,0.0604696,0.382168,1.81e+05,99108.9,12943.4,100000000.0,6.45514e-06,0.733809,0.945145,0.94,0.316539,0.0255604,3.70391e-05,0.000376375,0.993989,0.0,1683.0,1235.0,
119,10035.4,2.13e+12,1.0,0.0,1079.88,957.205,0.0604696,0.382168,1.81e+05,99108.9,12943.4,100000000.0,6.45514e-06,0.733809,0.945145,0.94,0.316539,0.0255604,3.70391e-05,0.000376375,0.993989,0.0,1683.0,1235.0,
122,10307.4,2.13e+12,1.0,0.0,1079.88,957.205,0.0604696,0.382168,1.81e+05,99108.9,12943.4,100000000.0,6.45514e-06,0.733809,0.945145,0.94,0.316539,0.0255604,3.70391e-05,0.000376375,0.993989,0.0,1683.0,1235.0,
125,10589.1,2.13e+12,1.0,0.0,1079.88,957.205,0.0604696,0.382168,1.81e+05,99108.9,12943.4,100000000.0,6.45514e-06,0.733809,0.945145,0.94,0.316539,0.0255604,3.70391e-05,0.000376375,0.993989,0.0,1683.0,1235.0,
128,10863.6,2.13e+12,1.0,0.0,1079.88,957.205,0.0604696,0.382168,1.81e+05,99108.9,12943.4,100000000.0,6.45514e-06,0.733809,0.945145,0.94,0.316539,0.0255604,3.70391e-05,0.000376375,0.993989,0.0,1683.0,1235.0,
131,11140,2.13e+12,1.0,0.0,1079.88,957.205,0.0604696,0.382168,1.81e+05,99108.9,12943.4,100000000.0,6.45514e-06,0.733809,0.945145,0.94,0.316539,0.0255604,3.70391e-05,0.000376375,0.993989,0.0,1683.0,1235.0,
134,11410.3,2.13e+12,1.0,0.0,1079.88,957.205,0.0604696,0.382168,1.81e+05,99108.9,12943.4,100000000.0,6.45514e-06,0.733809,0.945145,0.94,0.316539,0.0255604,3.70391e-05,0.000376375,0.993989,0.0,1683.0,1235.0,
137,11687.5,2.13e+12,1.0,0.0,1079.88,957.205,0.0604696,0.382168,1.81e+05,99108.9,12943.4,100000000.0,6.45514e-06,0.733809,0.945145,0.94,0.316539,0.0255604,3.70391e-05,0.000376375,0.993989,0.0,1683.0,1235.0,
140,11962.6,2.13e+12,1.0,0.0,1079.88,957.205,0.0604696,0.382168,1.81e+05,99108.9,12943.4,100000000.0,6.45514e-06,0.733809,0.945145,0.94,0.316539,0.0255604,3.70391e-05,0.000376375,0.993989,0.0,1683.0,1235.0,
143,12234.4,2.13e+12,1.0,0.0,1079.88,957.205,0.0604696,0.382168,1.81e+05,99108.9,12943.4,100000000.0,6.45514e-06,0.733809,0.945145,0.94,0.316539,0.0255604,3.70391e-05,0.000376375,0.993989,0.0,1683.0,1235.0,
146,12505.5,2.13e+12,1.0,0.0,1079.88,957.205,0.0604696,0.382168,1.81e+05,99108.9,12943.4,100000000.0,6.45514e-06,0.733809,0.945145,0.94,0.316539,0.0255604,3.70391e-05,0.000376375,0.993989,0.0,1683.0,1235.0,
149,12779.9,2.13e+12,1.0,0.0,1079.88,957.205,0.0604696,0.382168,1.81e+05,99108.9,12943.4,100000000.0,6.45514e-06,0.733809,0.945145,0.94,0.316539,0.0255604,3.70391e-05,0.000376375,0.993989,0.0,1683.0,1235.0,
152,13052.7,2.13e+12,1.0,0.0,1079.88,957.205,0.0604696,0.382168,1.81e+05,99108.9,12943.4,100000000.0,6.45514e-06,0.733809,0.945145,0.94,0.316539,0.0255604,3.70391e-05,0.000376375,0.993989,0.0,1683.0,1235.0,
155,13330.1,2.13e+12,1.0,0.0,1079.88,957.205,0.0604696,0.382168,1.81e+05,99108.9,12943.4,100000000.0,6.45514e-06,0.733809,0.945145,0.94,0.316539,0.0255604,3.70391e-05,0.000376375,0.993989,0.0,1683.0,1235.0,
158,13607,2.13e+12,1.0,0.0,1079.88,957.205,0.0604696,0.382168,1.81e+05,99108.9,12943.4,100000000.0,6.45514e-06,0.733809,0.945145,0.94,0.316539,0.0255604,3.70391e-05,0.000376375,0.993989,0.0,1683.0,1235.0,
161,13871.5,2.13e+12,1.0,0.0,1079.88,957.205,0.0604696,0.382168,1.81e+05,99108.9,12943.4,100000000.0,6.45514e-06,0.733809,0.945145,0.94,0.316539,0.0255604,3.70391e-05,0.000376375,0.993989,0.0,1683.0,1235.0,
164,14146.1,2.13e+12,1.0,0.0,1079.88,957.205,0.0604696,0.382168,1.81e+05,99108.9,12943.4,100000000.0,6.45514e-06,0.733809,0.945145,0.94,0.316539,0.0255604,3.70391e-05,0.000376375,0.993989,0.0,1683.0,1235.0,
167,14414.9,2.13e+12,1.0,0.0,1079.88,957.205,0.0604696,0.382168,1.81e+05,99108.9,12943.4,100000000.0,6.45514e-06,0.733809,0.945145,0.94,0.316539,0.0255604,3.70391e-05,0.000376375,0.993989,0.0,1683.0,1235.0,
170,14686.7,2.13e+12,1.0,0.0,1079.88,957.205,0.0604696,0.382168,1.81e+05,99108.9,12943.4,100000000.0,6.45514e-06,0.733809,0.945145,0.94,0.316539,0.0255604,3.70391e-05,0.000376375,0.993989,0.0,1683.0,1235.0,
173,14954.4,2.13e+12,1.0,0.0,1079.88,957.205,0.0604696,0.382168,1.81e+05,99108.9,12943.4,100000000.0,6.45514e-06,0.733809,0.945145,0.94,0.316539,0.0255604,3.70391e-05,0.000376375,0.993989,0.0,1683.0,1235.0,
176,15220.9,2.13e+12,1.0,0.0,1079.88,957.205,0.0604696,0.382168,1.81e+05,99108.9,12943.4,100000000.0,6.45514e-06,0.733809,0.945145,0.94,0.316539,0.0255604,3.70391e-05,0.000376375,0.993989,0.0,1683.0,1235.0,
179,15488.1,2.13e+12,1.0,0.0,1079.88,957.205,0.0604696,0.382168,1.81e+05,99108.9,12943.4,100000000.0,6.45514e-06,0.733809,0.945145,0.94,0.316539,0.0255604,3.70391e-05,0.000376375,0.993989,0.0,1683.0,1235.0,
182,15758.6,2.13e+12,1.0,0.0,1079.88,957.205,0.0604696,0.382168,1.81e+05,99108.9,12943.4,100000000.0,6.45514e-06,0.733809,0.945145,0.94,0.316539,0.0255604,3.70391e-05,0.000376375,0.993989,0.0,1683.0,1235.0,
185,16022,2.13e+12,1.0,0.0,1079.88,957.205,0.0604696,0.382168,1.81e+05,99108.9,12943.4,100000000.0,6.45514e-06,0.733809,0.945145,0.94,0.316539,0.0255604,3.70391e-05,0.000376375,0.993989,0.0,1683.0,1235.0,
188,16280.9,2.13e+12,1.0,0.0,1079.88,957.205,0.0604696,0.382168,1.81e+05,99108.9,12943.4,100000000.0,6.45514e-06,0.733809,0.945145,0.94,0.316539,0.0255604,3.70391e-05,0.000376375,0.993989,0.0,1683.0,1235.0,
191,16547.8,2.13e+12,1.0,0.0,1079.88,957.205,0.0604696,0.382168,1.81e+05,99108.9,12943.4,100000000.0,6.45514e-06,0.733809,0.945145,0.94,0.316539,0.0255604,3.70391e-05,0.000376375,0.993989,0.0,1683.0,1235.0,
194,16813.2,2.13e+12,1.0,0.0,1079.88,957.205,0.0604696,0.382168,1.81e+05,99108.9,12943.4,100000000.0,6.45514e-06,0.733809,0.945145,0.94,0.316539,0.0255604,3.70391e-05,0.000376375,0.993989,0.0,1683.0,1235.0,
197,17089.9,2.13e+12,1.0,0.0,1079.88,957.205,0.0604696,0.382168,1.81e+05,99108.9,12943.4,100000000.0,6.45514e-06,0.733809,0.945145,0.94,0.316539,0.0255604,3.70391e-05,0.000376375,0.993989,0.0,1683.0,1235.0,
200,17360.8,2.13e+12,1.0,0.0,1079.88,957.205,0.0604696,0.382168,1.81e+05,99108.9,12943.4,100000000.0,6.45514e-06,0.733809,0.945145,0.94,0.316539,0.0255604,3.70391e-05,0.000376375,0.993989,0.0,1683.0,1235.0,
203,17634.4,2.13e+12,1.0,0.0,1079.88,957.205,0.0604696,0.382168,1.81e+05,99108.9,12943.4,100000000.0,6.45514e-06,0.733809,0.945145,0.94,0.316539,0.0255604,3.70391e-05,0.000376375,0.993989,0.0,1683.0,1235.0,
206,17899.5,2.13e+12,1.0,0.0,1079.88,957.205,0.0604696,0.382168,1.81e+05,99108.9,12943.4,100000000.0,6.45514e-06,0.733809,0.945145,0.94,0.316539,0.0255604,3.70391e-05,0.000376375,0.993989,0.0,1683.0,1235.0,
209,18172.2,2.13e+12,1.0,0.0,1079.88,957.205,0.0604696,0.382168,1.81e+05,99108.9,12943.4,100000000.0,6.45514e-06,0.733809,0.945145,0.94,0.316539,0.0255604,3.70391e-05,0.000376375,0.993989,0.0,1683.0,1235.0,
212,18449.8,2.13e+12,1.0,0.0,1079.88,957.205,0.0604696,0.382168,1.81e+05,99108.9,12943.4,100000000.0,6.45514e-06,0.733809,0.945145,0.94,0.316539,0.0255604,3.70391e-05,0.000376375,0.993989,0.0,1683.0,1235.0,
215,18722.7,2.13e+12,1.0,0.0,1079.88,957.205,0.0604696,0.382168,1.81e+05,99108.9,12943.4,100000000.0,6.45514e-06,0.733809,0.945145,0.94,0.316539,0.0255604,3.70391e-05,0.000376375,0.993989,0.0,1683.0,1235.0,
218,18995.7,2.13e+12,1.0,0.0,1079.88,957.205,0.0604696,0.382168,1.81e+05,99108.9,12943.4,100000000.0,6.45514e-06,0.733809,0.945145,0.94,0.316539,0.0255604,3.70391e-05,0.000376375,0.993989,0.0,1683.0,1235.0,
221,19267,2.13e+12,1.0,0.0,1079.88,957.205,0.0604696,0.382168,1.81e+05,99108.9,12943.4,100000000.0,6.45514e-06,0.733809,0.945145,0.94,0.316539,0.0255604,3.70391e-05,0.000376375,0.993989,0.0,1683.0,1235.0,
224,19541,2.13e+12,1.0,0.0,1079.88,957.205,0.0604696,0.382168,1.81e+05,99108.9,12943.4,100000000.0,6.45514e-06,0.733809,0.945145,0.94,0.316539,0.0255604,3.70391e-05,0.000376375,0.993989,0.0,1683.0,1235.0,
227,19812.8,2.14e+12,1.0,0.0,1080.83,961.666,0.0654543,0.374406,1.81e+05,98967.8,13070.3,100000000.0,6.44599e-06,0.733809,0.947314,0.94,0.316791,0.0265105,3.86395e-05,0.000374306,0.994995,0.0,1683.0,1235.0,
230,20080.5,2.14e+12,1.0,0.0,1080.83,961.666,0.0654543,0.374406,1.81e+05,98967.8,13070.3,100000000.0,6.44599e-06,0.733809,0.947314,0.94,0.316791,0.0265105,3.86395e-05,0.000374306,0.994995,0.0,1683.0,1235.0,
233,20354.8,2.14e+12,1.0,0.0,1080.83,961.666,0.0654543,0.374406,1.81e+05,98967.8,13070.3,100000000.0,6.44599e-06,0.733809,0.947314,0.94,0.316791,0.0265105,3.86395e-05,0.000374306,0.994995,0.0,1683.0,1235.0,
236,20631.1,2.14e+12,1.0,0.0,1080.83,961.666,0.0654543,0.374406,1.81e+05,98967.8,13070.3,100000000.0,6.44599e-06,0.733809,0.947314,0.94,0.316791,0.0265105,3.86395e-05,0.000374306,0.994995,0.0,1683.0,1235.0,
239,20911.5,2.14e+12,1.0,0.0,1080.83,961.666,0.0654543,0.374406,1.81e+05,98967.8,13070.3,100000000.0,6.44599e-06,0.733809,0.947314,0.94,0.316791,0.0265105,3.86395e-05,0.000374306,0.994995,0.0,1683.0,1235.0,
242,21184,2.14e+12,1.0,0.0,1080.83,961.666,0.0654543,0.374406,1.81e+05,98967.8,13070.3,100000000.0,6.44599e-06,0.733809,0.947314,0.94,0.316791,0.0265105,3.86395e-05,0.000374306,0.994995,0.0,1683.0,1235.0,
245,21453.6,2.14e+12,1.0,0.0,1080.83,961.666,0.0654543,0.374406,1.81e+05,98967.8,13070.3,100000000.0,6.44599e-06,0.733809,0.947314,0.94,0.316791,0.0265105,3.86395e-05,0.000374306,0.994995,0.0,1683.0,1235.0,
248,21729.3,2.14e+12,1.0,0.0,1080.83,961.666,0.0654543,0.374406,1.81e+05,98967.8,13070.3,100000000.0,6.44599e-06,0.733809,0.947314,0.94,0.316791,0.0265105,3.86395e-05,0.000374306,0.994995,0.0,1683.0,1235.0,
251,22004.8,2.14e+12,1.0,0.0,1080.83,961.666,0.0654543,0.374406,1.81e+05,98967.8,13070.3,100000000.0,6.44599e-06,0.733809,0.947314,0.94,0.316791,0.0265105,3.86395e-05,0.000374306,0.994995,0.0,1683.0,1235.0,
254,22275.4,2.14e+12,1.0,0.0,1080.83,961.666,0.0654543,0.374406,1.81e+05,98967.8,13070.3,100000000.0,6.44599e-06,0.733809,0.947314,0.94,0.316791,0.0265105,3.86395e-05,0.000374306,0.994995,0.0,1683.0,1235.0,
257,22548.9,2.14e+12,1.0,0.0,1080.83,961.666,0.0654543,0.374406,1.81e+05,98967.8,13070.3,100000000.0,6.44599e-06,0.733809,0.947314,0.94,0.316791,0.0265105,3.86395e-05,0.000374306,0.994995,0.0,1683.0,1235.0,
260,22828.4,2.14e+12,1.0,0.0,1080.83,961.666,0.0654543,0.374406,1.81e+05,98967.8,13070.3,100000000.0,6.44599e-06,0.733809,0.947314,0.94,0.316791,0.0265105,3.86395e-05,0.000374306,0.994995,0.0,1683.0,1235.0,
263,23106.5,2.14e+12,1.0,0.0,1080.83,961.666,0.0654543,0.374406,1.81e+05,98967.8,13070.3,100000000.0,6.44599e-06,0.733809,0.947314,0.94,0.316791,0.0265105,3.86395e-05,0.000374306,0.994995,0.0,1683.0,1235.0,
266,23380.7,2.14e+12,1.0,0.0,1080.83,961.666,0.0654543,0.374406,1.81e+05,98967.8,13070.3,100000000.0,6.44599e-06,0.733809,0.947314,0.94,0.316791,0.0265105,3.86395e-05,0.000374306,0.994995,0.0,1683.0,1235.0,
269,23657.6,2.14e+12,1.0,0.0,1080.83,961.666,0.0654543,0.374406,1.81e+05,98967.8,13070.3,100000000.0,6.44599e-06,0.733809,0.947314,0.94,0.316791,0.0265105,3.86395e-05,0.000374306,0.994995,0.0,1683.0,1235.0,
272,23938.1,2.14e+12,1.0,0.0,1080.83,961.666,0.0654543,0.374406,1.81e+05,98967.8,13070.3,100000000.0,6.44599e-06,0.733809,0.947314,0.94,0.316791,0.0265105,3.86395e-05,0.000374306,0.994995,0.0,1683.0,1235.0,
275,24211.5,2.14e+12,1.0,0.0,1080.83,961.666,0.0654543,0.374406,1.81e+05,98967.8,13070.3,100000000.0,6.44599e-06,0.733809,0.947314,0.94,0.316791,0.0265105,3.86395e-05,0.000374306,0.994995,0.0,1683.0,1235.0,
278,24490.9,2.14e+12,1.0,0.0,1080.83,961.666,0.0654543,0.374406,1.81e+05,98967.8,13070.3,100000000.0,6.44599e-06,0.733809,0.947314,0.94,0.316791,0.0265105,3.86395e-05,0.000374306,0.994995,0.0,1683.0,1235.0,
281,24768,2.14e+12,1.0,0.0,1080.83,961.666,0.0654543,0.374406,1.81e+05,98967.8,13070.3,100000000.0,6.44599e-06,0.733809,0.947314,0.94,0.316791,0.0265105,3.86395e-05,0.000374306,0.994995,0.0,1683.0,1235.0,
284,25037.8,2.14e+12,1.0,0.0,1080.83,961.666,0.0654543,0.374406,1.81e+05,98967.8,13070.3,100000000.0,6.44599e-06,0.733809,0.947314,0.94,0.316791,0.0265105,3.86395e-05,0.000374306,0.994995,0.0,1683.0,1235.0,
287,25307.4,2.14e+12,1.0,0.0,1080.83,961.666,0.0654543,0.374406,1.81e+05,98967.8,13070.3,100000000.0,6.44599e-06,0.733809,0.947314,0.94,0.316791,0.0265105,3.86395e-05,0.000374306,0.994995,0.0,1683.0,1235.0,
290,25574.6,2.14e+12,1.0,0.0,1080.83,961.666,0.0654543,0.374406,1.81e+05,98967.8,13070.3,100000000.0,6.44599e-06,0.733809,0.947314,0.94,0.316791,0.0265105,3.86395e-05,0.000374306,0.994995,0.0,1683.0,1235.0,
293,25845.3,2.14e+12,1.0,0.0,1080.83,961.666,0.0654543,0.374406,1.81e+05,98967.8,13070.3,100000000.0,6.44599e-06,0.733809,0.947314,0.94,0.316791,0.0265105,3.86395e-05,0.000374306,0.994995,0.0,1683.0,1235.0,
296,26119.5,2.14e+12,1.0,0.0,1080.83,961.666,0.0654543,0.374406,1.81e+05,98967.8,13070.3,100000000.0,6.44599e-06,0.733809,0.947314,0.94,0.316791,0.0265105,3.86395e-05,0.000374306,0.994995,0.0,1683.0,1235.0,
299,26391.2,2.14e+12,1.0,0.0,1080.83,961.666,0.0654543,0.374406,1.81e+05,98967.8,13070.3,100000000.0,6.44599e-06,0.733809,0.947314,0.94,0.316791,0.0265105,3.86395e-05,0.000374306,0.994995,0.0,1683.0,1235.0,
302,26666.2,2.14e+12,1.0,0.0,1080.83,961.666,0.0654543,0.374406,1.81e+05,98967.8,13070.3,100000000.0,6.44599e-06,0.733809,0.947314,0.94,0.316791,0.0265105,3.86395e-05,0.000374306,0.994995,0.0,1683.0,1235.0,
305,26941,2.14e+12,1.0,0.0,1080.83,961.666,0.0654543,0.374406,1.81e+05,98967.8,13070.3,100000000.0,6.44599e-06,0.733809,0.947314,0.94,0.316791,0.0265105,3.86395e-05,0.000374306,0.994995,0.0,1683.0,1235.0,
308,27215.2,2.14e+12,1.0,0.0,1080.83,961.666,0.0654543,0.374406,1.81e+05,98967.8,13070.3,100000000.0,6.44599e-06,0.733809,0.947314,0.94,0.316791,0.0265105,3.86395e-05,0.000374306,0.994995,0.0,1683.0,1235.0,
311,27493.1,2.14e+12,1.0,0.0,1080.83,961.666,0.0654543,0.374406,1.81e+05,98967.8,13070.3,100000000.0,6.44599e-06,0.733809,0.947314,0.94,0.316791,0.0265105,3.86395e-05,0.000374306,0.994995,0.0,1683.0,1235.0,
314,27759.4,2.14e+12,1.0,0.0,1080.83,961.666,0.0654543,0.374406,1.81e+05,98967.8,13070.3,100000000.0,6.44599e-06,0.733809,0.947314,0.94,0.316791,0.0265105,3.86395e-05,0.000374306,0.994995,0.0,1683.0,1235.0,
317,28032,2.14e+12,1.0,0.0,1080.83,961.666,0.0654543,0.374406,1.81e+05,98967.8,13070.3,100000000.0,6.44599e-06,0.733809,0.947314,0.94,0.316791,0.0265105,3.86395e-05,0.000374306,0.994995,0.0,1683.0,1235.0,
320,28301.5,2.14e+12,1.0,0.0,1080.83,961.666,0.0654543,0.374406,1.81e+05,98967.8,13070.3,100000000.0,6.44599e-06,0.733809,0.947314,0.94,0.316791,0.0265105,3.86395e-05,0.000374306,0.994995,0.0,1683.0,1235.0,
323,28573.9,2.14e+12,1.0,0.0,1080.83,961.666,0.0654543,0.374406,1.81e+05,98967.8,13070.3,100000000.0,6.44599e-06,0.733809,0.947314,0.94,0.316791,0.0265105,3.86395e-05,0.000374306,0.994995,0.0,1683.0,1235.0,
326,28840.6,2.14e+12,1.0,0.0,1080.83,961.666,0.0654543,0.374406,1.81e+05,98967.8,13070.3,100000000.0,6.44599e-06,0.733809,0.947314,0.94,0.316791,0.0265105,3.86395e-05,0.000374306,0.994995,0.0,1683.0,1235.0,
329,29109.1,2.14e+12,1.0,0.0,1080.83,961.666,0.0654543,0.374406,1.81e+05,98967.8,13070.3,100000000.0,6.44599e-06,0.733809,0.947314,0.94,0.316791,0.0265105,3.86395e-05,0.000374306,0.994995,0.0,1683.0,1235.0,
332,29386.4,2.14e+12,1.0,0.0,1080.83,961.666,0.0654543,0.374406,1.81e+05,98967.8,13070.3,100000000.0,6.44599e-06,0.733809,0.947314,0.94,0.316791,0.0265105,3.86395e-05,0.000374306,0.994995,0.0,1683.0,1235.0,
335,29664.6,2.14e+12,1.0,0.0,1080.83,961.666,0.0654543,0.374406,1.81e+05,98967.8,13070.3,100000000.0,6.44599e-06,0.733809,0.947314,0.94,0.316791,0.0265105,3.86395e-05,0.000374306,0.994995,0.0,1683.0,1235.0,
338,29936.5,2.14e+12,1.0,0.0,1080.83,961.666,0.0654543,0.374406,1.81e+05,98967.8,13070.3,100000000.0,6.44599e-06,0.733809,0.947314,0.94,0.316791,0.0265105,3.86395e-05,0.000374306,0.994995,0.0,1683.0,1235.0,
341,30212.6,2.14e+12,1.0,0.0,1080.83,961.666,0.0654543,0.374406,1.81e+05,98967.8,13070.3,100000000.0,6.44599e-06,0.733809,0.947314,0.94,0.316791,0.0265105,3.86395e-05,0.000374306,0.994995,0.0,1683.0,1235.0,
344,30487.3,2.14e+12,1.0,0.0,1080.83,961.666,0.0654543,0.374406,1.81e+05,98967.8,13070.3,100000000.0,6.44599e-06,0.733809,0.947314,0.94,0.316791,0.0265105,3.86395e-05,0.000374306,0.994995,0.0,1683.0,1235.0,
347,30756.2,2.14e+12,1.0,0.0,1080.83,961.666,0.0654543,0.374406,1.81e+05,98967.8,13070.3,100000000.0,6.44599e-06,0.733809,0.947314,0.94,0.316791,0.0265105,3.86395e-05,0.000374306,0.994995,0.0,1683.0,1235.0,
350,31030.6,2.14e+12,1.0,0.0,1080.83,961.666,0.0654543,0.374406,1.81e+05,98967.8,13070.3,100000000.0,6.44599e-06,0.733809,0.947314,0.94,0.316791,0.0265105,3.86395e-05,0.000374306,0.994995,0.0,1683.0,1235.0,
353,31299.1,2.14e+12,1.0,0.0,1080.83,961.666,0.0654543,0.374406,1.81e+05,98967.8,13070.3,100000000.0,6.44599e-06,0.733809,0.947314,0.94,0.316791,0.0265105,3.86395e-05,0.000374306,0.994995,0.0,1683.0,1235.0,
356,31567.1,2.14e+12,1.0,0.0,1080.83,961.666,0.0654543,0.374406,1.81e+05,98967.8,13070.3,100000000.0,6.44599e-06,0.733809,0.947314,0.94,0.316791,0.0265105,3.86395e-05,0.000374306,0.994995,0.0,1683.0,1235.0,
359,31843.5,2.14e+12,1.0,0.0,1080.83,961.666,0.0654543,0.374406,1.81e+05,98967.8,13070.3,100000000.0,6.44599e-06,0.733809,0.947314,0.94,0.316791,0.0265105,3.86395e-05,0.000374306,0.994995,0.0,1683.0,1235.0,
362,32108.4,2.14e+12,1.0,0.0,1080.83,961.666,0.0654543,0.374406,1.81e+05,98967.8,13070.3,100000000.0,6.44599e-06,0.733809,0.947314,0.94,0.316791,0.0265105,3.86395e-05,0.000374306,0.994995,0.0,1683.0,1235.0,
365,32378.2,2.14e+12,1.0,0.0,1080.83,961.666,0.0654543,0.374406,1.81e+05,98967.8,13070.3,100000000.0,6.44599e-06,0.733809,0.947314,0.94,0.316791,0.0265105,3.86395e-05,0.000374306,0.994995,0.0,1683.0,1235.0,
368,32647.4,2.14e+12,1.0,0.0,1080.83,961.666,0.0654543,0.374406,1.81e+05,98967.8,13070.3,100000000.0,6.44599e-06,0.733809,0.947314,0.94,0.316791,0.0265105,3.86395e-05,0.000374306,0.994995,0.0,1683.0,1235.0,
371,32918.3,2.14e+12,1.0,0.0,1080.83,961.666,0.0654543,0.374406,1.81e+05,98967.8,13070.3,100000000.0,6.44599e-06,0.733809,0.947314,0.94,0.316791,0.0265105,3.86395e-05,0.000374306,0.994995,0.0,1683.0,1235.0,
374,33192.6,2.14e+12,1.0,0.0,1080.83,961.666,0.0654543,0.374406,1.81e+05,98967.8,13070.3,100000000.0,6.44599e-06,0.733809,0.947314,0.94,0.316791,0.0265105,3.86395e-05,0.000374306,0.994995,0.0,1683.0,1235.0,
377,33461.1,2.14e+12,1.0,0.0,1080.83,961.666,0.0654543,0.374406,1.81e+05,98967.8,13070.3,100000000.0,6.44599e-06,0.733809,0.947314,0.94,0.316791,0.0265105,3.86395e-05,0.000374306,0.994995,0.0,1683.0,1235.0,
380,33734.2,2.14e+12,1.0,0.0,1080.83,961.666,0.0654543,0.374406,1.81e+05,98967.8,13070.3,100000000.0,6.44599e-06,0.733809,0.947314,0.94,0.316791,0.0265105,3.86395e-05,0.000374306,0.994995,0.0,1683.0,1235.0,
383,34001.4,2.14e+12,1.0,0.0,1080.83,961.666,0.0654543,0.374406,1.81e+05,98967.8,13070.3,100000000.0,6.44599e-06,0.733809,0.947314,0.94,0.316791,0.0265105,3.86395e-05,0.000374306,0.994995,0.0,1683.0,1235.0,
386,34273.4,2.14e+12,1.0,0.0,1080.83,961.666,0.0654543,0.374406,1.81e+05,98967.8,13070.3,100000000.0,6.44599e-06,0.733809,0.947314,0.94,0.316791,0.0265105,3.86395e-05,0.000374306,0.994995,0.0,1683.0,1235.0,
389,34542.9,2.14e+12,1.0,0.0,1080.83,961.666,0.0654543,0.374406,1.81e+05,98967.8,13070.3,100000000.0,6.44599e-06,0.733809,0.947314,0.94,0.316791,0.0265105,3.86395e-05,0.000374306,0.994995,0.0,1683.0,1235.0,
392,34819.3,2.14e+12,1.0,0.0,1080.83,961.666,0.0654543,0.374406,1.81e+05,98967.8,13070.3,100000000.0,6.44599e-06,0.733809,0.947314,0.94,0.316791,0.0265105,3.86395e-05,0.000374306,0.994995,0.0,1683.0,1235.0,
395,35089.6,2.14e+12,1.0,0.0,1080.83,961.666,0.0654543,0.374406,1.81e+05,98967.8,13070.3,100000000.0,6.44599e-06,0.733809,0.947314,0.94,0.316791,0.0265105,3.86395e-05,0.000374306,0.994995,0.0,1683.0,1235.0,
398,35360,2.14e+12,1.0,0.0,1080.83,961.666,0.0654543,0.374406,1.81e+05,98967.8,13070.3,100000000.0,6.44599e-06,0.733809,0.947314,0.94,0.316791,0.0265105,3.86395e-05,0.000374306,0.994995,0.0,1683.0,1235.0,
401,35629.1,2.14e+12,1.0,0.0,1080.83,961.666,0.0654543,0.374406,1.81e+05,98967.8,13070.3,100000000.0,6.44599e-06,0.733809,0.947314,0.94,0.316791,0.0265105,3.86395e-05,0.000374306,0.994995,0.0,1683.0,1235.0,
404,35894.3,2.14e+12,1.0,0.0,1080.83,961.666,0.0654543,0.374406,1.81e+05,98967.8,13070.3,100000000.0,6.44599e-06,0.733809,0.947314,0.94,0.316791,0.0265105,3.86395e-05,0.000374306,0.994995,0.0,1683.0,1235.0,
407,36164,2.14e+12,1.0,0.0,1080.83,961.666,0.0654543,0.374406,1.81e+05,98967.8,13070.3,100000000.0,6.44599e-06,0.733809,0.947314,0.94,0.316791,0.0265105,3.86395e-05,0.000374306,0.994995,0.0,1683.0,1235.0,
410,36433.4,2.14e+12,1.0,0.0,1080.83,961.666,0.0654543,0.374406,1.81e+05,98967.8,13070.3,100000000.0,6.44599e-06,0.733809,0.947314,0.94,0.316791,0.0265105,3.86395e-05,0.000374306,0.994995,0.0,1683.0,1235.0,
413,36702.9,2.14e+12,1.0,0.0,1080.83,961.666,0.0654543,0.374406,1.81e+05,98967.8,13070.3,100000000.0,6.44599e-06,0.733809,0.947314,0.94,0.316791,0.0265105,3.86395e-05,0.000374306,0.994995,0.0,1683.0,1235.0,
416,36970.2,2.14e+12,1.0,0.0,1080.83,961.666,0.0654543,0.374406,1.81e+05,98967.8,13070.3,100000000.0,6.44599e-06,0.733809,0.947314,0.94,0.316791,0.0265105,3.86395e-05,0.000374306,0.994995,0.0,1683.0,1235.0,
419,37234.8,2.14e+12,1.0,0.0,1080.83,961.666,0.0654543,0.374406,1.81e+05,98967.8,13070.3,100000000.0,6.44599e-06,0.733809,0.947314,0.94,0.316791,0.0265105,3.86395e-05,0.000374306,0.994995,0.0,1683.0,1235.0,
422,37502.2,2.14e+12,1.0,0.0,1080.83,961.666,0.0654543,0.374406,1.81e+05,98967.8,13070.3,100000000.0,6.44599e-06,0.733809,0.947314,0.94,0.316791,0.0265105,3.86395e-05,0.000374306,0.994995,0.0,1683.0,1235.0,
425,37770.2,2.13e+12,1.0,0.0,1080.54,960.744,0.0638609,0.376234,1.81e+05,99015.3,13027.4,100000000.0,6.44409e-06,0.733809,0.946627,0.94,0.316715,0.0262031,3.81307e-05,0.000375002,0.994631,0.0,1683.0,1235.0,
428,38036.4,2.13e+12,1.0,0.0,1080.54,960.744,0.0638609,0.376234,1.81e+05,99015.3,13027.4,100000000.0,6.44409e-06,0.733809,0.946627,0.94,0.316715,0.0262031,3.81307e-05,0.000375002,0.994631,0.0,1683.0,1235.0,
431,38304.7,2.13e+12,1.0,0.0,1080.54,960.744,0.0638609,0.376234,1.81e+05,99015.3,13027.4,100000000.0,6.44409e-06,0.733809,0.946627,0.94,0.316715,0.0262031,3.81307e-05,0.000375002,0.994631,0.0,1683.0,1235.0,
434,38570.5,2.13e+12,1.0,0.0,1080.54,960.744,0.0638609,0.376234,1.81e+05,99015.3,13027.4,100000000.0,6.44409e-06,0.733809,0.946627,0.94,0.316715,0.0262031,3.81307e-05,0.000375002,0.994631,0.0,1683.0,1235.0,
437,38836.6,2.13e+12,1.0,0.0,1080.54,960.744,0.0638609,0.376234,1.81e+05,99015.3,13027.4,100000000.0,6.44409e-06,0.733809,0.946627,0.94,0.316715,0.0262031,3.81307e-05,0.000375002,0.994631,0.0,1683.0,1235.0,
440,39105.2,2.13e+12,1.0,0.0,1080.54,960.744,0.0638609,0.376234,1.81e+05,99015.3,13027.4,100000000.0,6.44409e-06,0.733809,0.946627,0.94,0.316715,0.0262031,3.81307e-05,0.000375002,0.994631,0.0,1683.0,1235.0,
443,39372.9,2.13e+12,1.0,0.0,1080.54,960.744,0.0638609,0.376234,1.81e+05,99015.3,13027.4,100000000.0,6.44409e-06,0.733809,0.946627,0.94,0.316715,0.0262031,3.81307e-05,0.000375002,0.994631,0.0,1683.0,1235.0,
446,39640.2,2.13e+12,1.0,0.0,1080.54,960.744,0.0638609,0.376234,1.81e+05,99015.3,13027.4,100000000.0,6.44409e-06,0.733809,0.946627,0.94,0.316715,0.0262031,3.81307e-05,0.000375002,0.994631,0.0,1683.0,1235.0,
449,39909,2.13e+12,1.0,0.0,1080.54,960.744,0.0638609,0.376234,1.81e+05,99015.3,13027.4,100000000.0,6.44409e-06,0.733809,0.946627,0.94,0.316715,0.0262031,3.81307e-05,0.000375002,0.994631,0.0,1683.0,1235.0,
452,40177,2.13e+12,1.0,0.0,1080.54,960.744,0.0638609,0.376234,1.81e+05,99015.3,13027.4,100000000.0,6.44409e-06,0.733809,0.946627,0.94,0.316715,0.0262031,3.81307e-05,0.000375002,0.994631,0.0,1683.0,1235.0,
455,40438.3,2.13e+12,1.0,0.0,1080.54,960.744,0.0638609,0.376234,1.81e+05,99015.3,13027.4,100000000.0,6.44409e-06,0.733809,0.946627,0.94,0.316715,0.0262031,3.81307e-05,0.000375002,0.994631,0.0,1683.0,1235.0,
458,40709,2.13e+12,1.0,0.0,1080.54,960.744,0.0638609,0.376234,1.81e+05,99015.3,13027.4,100000000.0,6.44409e-06,0.733809,0.946627,0.94,0.316715,0.0262031,3.81307e-05,0.000375002,0.994631,0.0,1683.0,1235.0,
461,40976.1,2.13e+12,1.0,0.0,1080.54,960.744,0.0638609,0.376234,1.81e+05,99015.3,13027.4,100000000.0,6.44409e-06,0.733809,0.946627,0.94,0.316715,0.0262031,3.81307e-05,0.000375002,0.994631,0.0,1683.0,1235.0,
464,41256.4,2.13e+12,1.0,0.0,1080.54,960.744,0.0638609,0.376234,1.81e+05,99015.3,13027.4,100000000.0,6.44409e-06,0.733809,0.946627,0.94,0.316715,0.0262031,3.81307e-05,0.000375002,0.994631,0.0,1683.0,1235.0,
467,41527.9,2.13e+12,1.0,0.0,1080.54,960.744,0.0638609,0.376234,1.81e+05,99015.3,13027.4,100000000.0,6.44409e-06,0.733809,0.946627,0.94,0.316715,0.0262031,3.81307e-05,0.000375002,0.994631,0.0,1683.0,1235.0,
470,41792,2.13e+12,1.0,0.0,1080.54,960.744,0.0638609,0.376234,1.81e+05,99015.3,13027.4,100000000.0,6.44409e-06,0.733809,0.946627,0.94,0.316715,0.0262031,3.81307e-05,0.000375002,0.994631,0.0,1683.0,1235.0,
473,42068.6,2.13e+12,1.0,0.0,1080.54,960.744,0.0638609,0.376234,1.81e+05,99015.3,13027.4,100000000.0,6.44409e-06,0.733809,0.946627,0.94,0.316715,0.0262031,3.81307e-05,0.000375002,0.994631,0.0,1683.0,1235.0,
476,42337,2.13e+12,1.0,0.0,1080.54,960.744,0.0638609,0.376234,1.81e+05,99015.3,13027.4,100000000.0,6.44409e-06,0.733809,0.946627,0.94,0.316715,0.0262031,3.81307e-05,0.000375002,0.994631,0.0,1683.0,1235.0,
479,42606.7,2.13e+12,1.0,0.0,1080.54,960.744,0.0638609,0.376234,1.81e+05,99015.3,13027.4,100000000.0,6.44409e-06,0.733809,0.946627,0.94,0.316715,0.0262031,3.81307e-05,0.000375002,0.994631,0.0,1683.0,1235.0,
482,42877.4,2.13e+12,1.0,0.0,1080.54,960.744,0.0638609,0.376234,1.81e+05,99015.3,13027.4,100000000.0,6.44409e-06,0.733809,0.946627,0.94,0.316715,0.0262031,3.81307e-05,0.000375002,0.994631,0.0,1683.0,1235.0,
485,43143.8,2.13e+12,1.0,0.0,1080.54,960.744,0.0638609,0.376234,1.81e+05,99015.3,13027.4,100000000.0,6.44409e-06,0.733809,0.946627,0.94,0.316715,0.0262031,3.81307e-05,0.000375002,0.994631,0.0,1683.0,1235.0,
488,43414.1,2.13e+12,1.0,0.0,1080.54,960.744,0.0638609,0.376234,1.81e+05,99015.3,13027.4,100000000.0,6.44409e-06,0.733809,0.946627,0.94,0.316715,0.0262031,3.81307e-05,0.000375002,0.994631,0.0,1683.0,1235.0,
491,43680.9,2.13e+12,1.0,0.0,1080.54,960.744,0.0638609,0.376234,1.81e+05,99015.3,13027.4,100000000.0,6.44409e-06,0.733809,0.946627,0.94,0.316715,0.0262031,3.81307e-05,0.000375002,0.994631,0.0,1683.0,1235.0,
494,43951.3,2.13e+12,1.0,0.0,1080.54,960.744,0.0638609,0.376234,1.81e+05,99015.3,13027.4,100000000.0,6.44409e-06,0.733809,0.946627,0.94,0.316715,0.0262031,3.81307e-05,0.000375002,0.994631,0.0,1683.0,1235.0,
497,44216.8,2.13e+12,1.0,0.0,1080.54,960.744,0.0638609,0.376234,1.81e+05,99015.3,13027.4,100000000.0,6.44409e-06,0.733809,0.946627,0.94,0.316715,0.0262031,3.81307e-05,0.000375002,0.994631,0.0,1683.0,1235.0,
500,44482,2.13e+12,1.0,0.0,1080.54,960.744,0.0638609,0.376234,1.81e+05,99015.3,13027.4,100000000.0,6.44409e-06,0.733809,0.946627,0.94,0.316715,0.0262031,3.81307e-05,0.000375002,0.994631,0.0,1683.0,1235.0,
503,44753.4,2.13e+12,1.0,0.0,1080.54,960.744,0.0638609,0.376234,1.81e+05,99015.3,13027.4,100000000.0,6.44409e-06,0.733809,0.946627,0.94,0.316715,0.0262031,3.81307e-05,0.000375002,0.994631,0.0,1683.0,1235.0,
506,45027.9,2.13e+12,1.0,0.0,1080.54,960.744,0.0638609,0.376234,1.81e+05,99015.3,13027.4,100000000.0,6.44409e-06,0.733809,0.946627,0.94,0.316715,0.0262031,3.81307e-05,0.000375002,0.994631,0.0,1683.0,1235.0,
509,45299.4,2.13e+12,1.0,0.0,1080.54,960.744,0.0638609,0.376234,1.81e+05,99015.3,13027.4,100000000.0,6.44409e-06,0.733809,0.946627,0.94,0.316715,0.0262031,3.81307e-05,0.000375002,0.994631,0.0,1683.0,1235.0,
512,45564.4,2.13e+12,1.0,0.0,1080.54,960.744,0.0638609,0.376234,1.81e+05,99015.3,13027.4,100000000.0,6.44409e-06,0.733809,0.946627,0.94,0.316715,0.0262031,3.81307e-05,0.000375002,0.994631,0.0,1683.0,1235.0,
515,45835.4,2.13e+12,1.0,0.0,1080.54,960.744,0.0638609,0.376234,1.81e+05,99015.3,13027.4,100000000.0,6.44409e-06,0.733809,0.946627,0.94,0.316715,0.0262031,3.81307e-05,0.000375002,0.994631,0.0,1683.0,1235.0,
518,46103.8,2.13e+12,1.0,0.0,1080.54,960.744,0.0638609,0.376234,1.81e+05,99015.3,13027.4,100000000.0,6.44409e-06,0.733809,0.946627,0.94,0.316715,0.0262031,3.81307e-05,0.000375002,0.994631,0.0,1683.0,1235.0,
521,46374.7,2.13e+12,1.0,0.0,1080.54,960.744,0.0638609,0.376234,1.81e+05,99015.3,13027.4,100000000.0,6.44409e-06,0.733809,0.946627,0.94,0.316715,0.0262031,3.81307e-05,0.000375002,0.994631,0.0,1683.0,1235.0,
524,46648.8,2.13e+12,1.0,0.0,1080.54,960.744,0.0638609,0.376234,1.81e+05,99015.3,13027.4,100000000.0,6.44409e-06,0.733809,0.946627,0.94,0.316715,0.0262031,3.81307e-05,0.000375002,0.994631,0.0,1683.0,1235.0,
527,46915.4,2.13e+12,1.0,0.0,1080.54,960.744,0.0638609,0.376234,1.81e+05,99015.3,13027.4,100000000.0,6.44409e-06,0.733809,0.946627,0.94,0.316715,0.0262031,3.81307e-05,0.000375002,0.994631,0.0,1683.0,1235.0,
530,47186.5,2.13e+12,1.0,0.0,1080.54,960.744,0.0638609,0.376234,1.81e+05,99015.3,13027.4,100000000.0,6.44409e-06,0.733809,0.946627,0.94,0.316715,0.0262031,3.81307e-05,0.000375002,0.994631,0.0,1683.0,1235.0,
533,47456.1,2.13e+12,1.0,0.0,1080.54,960.744,0.0638609,0.376234,1.81e+05,99015.3,13027.4,100000000.0,6.44409e-06,0.733809,0.946627,0.94,0.316715,0.0262031,3.81307e-05,0.000375002,0.994631,0.0,1683.0,1235.0,
536,47730,2.13e+12,1.0,0.0,1080.54,960.744,0.0638609,0.376234,1.81e+05,99015.3,13027.4,100000000.0,6.44409e-06,0.733809,0.946627,0.94,0.316715,0.0262031,3.81307e-05,0.000375002,0.994631,0.0,1683.0,1235.0,
539,47999.6,2.13e+12,1.0,0.0,1080.54,960.744,0.0638609,0.376234,1.81e+05,99015.3,13027.4,100000000.0,6.44409e-06,0.733809,0.946627,0.94,0.316715,0.0262031,3.81307e-05,0.000375002,0.994631,0.0,1683.0,1235.0,
542,48273.4,2.13e+12,1.0,0.0,1080.54,960.744,0.0638609,0.376234,1.81e+05,99015.3,13027.4,100000000.0,6.44409e-06,0.733809,0.946627,0.94,0.316715,0.0262031,3.81307e-05,0.000375002,0.994631,0.0,1683.0,1235.0,
545,48538.9,2.13e+12,1.0,0.0,1080.54,960.744,0.0638609,0.376234,1.81e+05,99015.3,13027.4,100000000.0,6.44409e-06,0.733809,0.946627,0.94,0.316715,0.0262031,3.81307e-05,0.000375002,0.994631,0.0,1683.0,1235.0,
548,48807.7,2.13e+12,1.0,0.0,1080.54,960.744,0.0638609,0.376234,1.81e+05,99015.3,13027.4,100000000.0,6.44409e-06,0.733809,0.946627,0.94,0.316715,0.0262031,3.81307e-05,0.000375002,0.994631,0.0,1683.0,1235.0,
551,49080.6,2.13e+12,1.0,0.0,1080.54,960.744,0.0638609,0.376234,1.81e+05,99015.3,13027.4,100000000.0,6.44409e-06,0.733809,0.946627,0.94,0.316715,0.0262031,3.81307e-05,0.000375002,0.994631,0.0,1683.0,1235.0,
554,49351.4,2.13e+12,1.0,0.0,1080.54,960.744,0.0638609,0.376234,1.81e+05,99015.3,13027.4,100000000.0,6.44409e-06,0.733809,0.946627,0.94,0.316715,0.0262031,3.81307e-05,0.000375002,0.994631,0.0,1683.0,1235.0,
557,49617.9,2.13e+12,1.0,0.0,1080.54,960.744,0.0638609,0.376234,1.81e+05,99015.3,13027.4,100000000.0,6.44409e-06,0.733809,0.946627,0.94,0.316715,0.0262031,3.81307e-05,0.000375002,0.994631,0.0,1683.0,1235.0,
560,49885.1,2.13e+12,1.0,0.0,1080.54,960.744,0.0638609,0.376234,1.81e+05,99015.3,13027.4,100000000.0,6.44409e-06,0.733809,0.946627,0.94,0.316715,0.0262031,3.81307e-05,0.000375002,0.994631,0.0,1683.0,1235.0,
563,50156.9,2.13e+12,1.0,0.0,1080.54,960.744,0.0638609,0.376234,1.81e+05,99015.3,13027.4,100000000.0,6.44409e-06,0.733809,0.946627,0.94,0.316715,0.0262031,3.81307e-05,0.000375002,0.994631,0.0,1683.0,1235.0,
566,50425.8,2.13e+12,1.0,0.0,1080.54,960.744,0.0638609,0.376234,1.81e+05,99015.3,13027.4,100000000.0,6.44409e-06,0.733809,0.946627,0.94,0.316715,0.0262031,3.81307e-05,0.000375002,0.994631,0.0,1683.0,1235.0,
569,50690,2.13e+12,1.0,0.0,1080.54,960.744,0.0638609,0.376234,1.81e+05,99015.3,13027.4,100000000.0,6.44409e-06,0.733809,0.946627,0.94,0.316715,0.0262031,3.81307e-05,0.000375002,0.994631,0.0,1683.0,1235.0,
572,50956.2,2.13e+12,1.0,0.0,1080.54,960.744,0.0638609,0.376234,1.81e+05,99015.3,13027.4,100000000.0,6.44409e-06,0.733809,0.946627,0.94,0.316715,0.0262031,3.81307e-05,0.000375002,0.994631,0.0,1683.0,1235.0,
575,51227.1,2.13e+12,1.0,0.0,1080.54,960.744,0.0638609,0.376234,1.81e+05,99015.3,13027.4,100000000.0,6.44409e-06,0.733809,0.946627,0.94,0.316715,0.0262031,3.81307e-05,0.000375002,0.994631,0.0,1683.0,1235.0,
578,51489.7,2.13e+12,1.0,0.0,1080.54,960.744,0.0638609,0.376234,1.81e+05,99015.3,13027.4,100000000.0,6.44409e-06,0.733809,0.946627,0.94,0.316715,0.0262031,3.81307e-05,0.000375002,0.994631,0.0,1683.0,1235.0,
581,51753.9,2.13e+12,1.0,0.0,1080.54,960.744,0.0638609,0.376234,1.81e+05,99015.3,13027.4,100000000.0,6.44409e-06,0.733809,0.946627,0.94,0.316715,0.0262031,3.81307e-05,0.000375002,0.994631,0.0,1683.0,1235.0,
584,52028.1,2.13e+12,1.0,0.0,1080.54,960.744,0.0638609,0.376234,1.81e+05,99015.3,13027.4,100000000.0,6.44409e-06,0.733809,0.946627,0.94,0.316715,0.0262031,3.81307e-05,0.000375002,0.994631,0.0,1683.0,1235.0,
585,52126,2.13e+12,1.0,0.0,1080.54,960.744,0.0638609,0.376234,1.81e+05,99015.3,13027.4,100000000.0,6.44409e-06,0.733809,0.946627,0.94,0.316715,0.0262031,3.81307e-05,0.000375002,0.994631,0.0,1683.0,1235.0,