File: results/E_Glass/E_Glass_linear_tga_M_BT/E_Glass_linear_tga_M_BT_0_cone_Temp0.csv
# Time [s], Temperature [C]
0.000000000000000000e+00,25
2,25.0001
4,25.0048
6,25.0473
8,25.2019
10,25.5364
12,26.0783
14,26.8239
16,27.7545
18,28.8461
20,30.0748
22,31.4187
24,32.8586
26,34.3778
28,35.9626
30,37.6011
32,39.2835
34,41.0017
36,42.749
38,44.5195
40,46.3086
42,48.1124
44,49.9276
46,51.7515
48,53.5819
50,55.4169
52,57.2549
54,59.0946
56,60.935
58,62.7751
60,64.6143
62,66.4519
64,68.2873
66,70.1202
68,71.9502
70,73.777
72,75.6004
74,77.42
76,79.2358
78,81.0476
80,82.8553
82,84.6588
84,86.458
86,88.2527
88,90.0431
90,91.8289
92,93.6101
94,95.3868
96,97.1588
98,98.9262
100,100.689
102,102.447
104,104.2
106,105.948
108,107.692
110,109.431
112,111.165
114,112.894
116,114.618
118,116.337
120,118.052
122,119.761
124,121.466
126,123.166
128,124.86
130,126.55
132,128.234
134,129.914
136,131.588
138,133.257
140,134.921
142,136.579
144,138.233
146,139.881
148,141.524
150,143.161
152,144.793
154,146.419
156,148.04
158,149.655
160,151.264
162,152.867
164,154.465
166,156.057
168,157.643
170,159.223
172,160.798
174,162.366
176,163.929
178,165.486
180,167.037
182,168.583
184,170.123
186,171.657
188,173.186
190,174.709
192,176.227
194,177.74
196,179.247
198,180.749
200,182.246
202,183.737
204,185.223
206,186.704
208,188.18
210,189.651
212,191.116
214,192.576
216,194.031
218,195.481
220,196.925
222,198.365
224,199.798
226,201.227
228,202.65
230,204.067
232,205.48
234,206.886
236,208.287
238,209.683
240,211.073
242,212.457
244,213.835
246,215.207
248,216.573
250,217.934
252,219.288
254,220.636
256,221.977
258,223.312
260,224.64
262,225.962
264,227.277
266,228.585
268,229.885
270,231.178
272,232.464
274,233.742
276,235.012
278,236.274
280,237.527
282,238.772
284,240.008
286,241.235
288,242.453
290,243.661
292,244.859
294,246.046
296,247.223
298,248.389
300,249.543
302,250.686
304,251.816
306,252.934
308,254.039
310,255.131
312,256.208
314,257.272
316,258.321
318,259.355
320,260.373
322,261.375
324,262.361
326,263.33
328,264.282
330,265.217
332,266.133
334,267.031
336,267.91
338,268.771
340,269.612
342,270.434
344,271.236
346,272.018
348,272.78
350,273.522
352,274.244
354,274.946
356,275.627
358,276.289
360,276.931
362,277.552
364,278.155
366,278.737
368,279.301
370,279.846
372,280.372
374,280.881
376,281.371
378,281.845
380,282.302
382,282.742
384,283.166
386,283.575
388,283.97
390,284.35
392,284.716
394,285.069
396,285.409
398,285.737
400,286.054
402,286.359
404,286.654
406,286.939
408,287.214
410,287.479
412,287.737
414,287.986
416,288.227
418,288.461
420,288.688
422,288.908
424,289.122
426,289.331
428,289.534
430,289.732
432,289.926
434,290.115
436,290.299
438,290.48
440,290.658
442,290.832
444,291.003
446,291.171
448,291.337
450,291.5
452,291.661
454,291.819
456,291.976
458,292.132
460,292.285
462,292.438
464,292.589
466,292.739
468,292.888
470,293.036
472,293.183
474,293.33
476,293.476
478,293.621
480,293.766
482,293.911
484,294.056
486,294.201
488,294.345
490,294.49
492,294.634
494,294.779
496,294.924
498,295.069
500,295.215
502,295.36
504,295.507
506,295.653
508,295.8
510,295.948
512,296.097
514,296.246
516,296.395
518,296.546
520,296.697
522,296.849
524,297.001
526,297.155
528,297.31
530,297.465
532,297.621
534,297.779
536,297.937
538,298.097
540,298.257
542,298.419
544,298.582
546,298.746
548,298.911
550,299.077
552,299.245
554,299.414
556,299.584
558,299.755
560,299.928
562,300.101
564,300.277
566,300.453
568,300.631
570,300.81
572,300.991
574,301.173
576,301.356
578,301.541
580,301.726
582,301.914
584,302.103
586,302.293
588,302.484
590,302.677
592,302.872
594,303.068
596,303.265
598,303.464
600,303.665
602,303.867
604,304.07
606,304.275
608,304.482
610,304.691
612,304.901
614,305.113
616,305.327
618,305.543
620,305.76
622,305.98
624,306.201
626,306.424
628,306.65
630,306.877
632,307.107
634,307.338
636,307.572
638,307.809
640,308.047
642,308.288
644,308.532
646,308.778
648,309.026
650,309.278
652,309.532
654,309.788
656,310.048
658,310.31
660,310.575
662,310.844
664,311.115
666,311.389
668,311.667
670,311.948
672,312.233
674,312.521
676,312.812
678,313.107
680,313.406
682,313.709
684,314.015
686,314.326
688,314.64
690,314.959
692,315.282
694,315.61
696,315.942
698,316.279
700,316.62
702,316.967
704,317.318
706,317.675
708,318.037
710,318.404
712,318.776
714,319.155
716,319.539
718,319.93
720,320.326
722,320.729
724,321.138
726,321.554
728,321.977
730,322.407
732,322.845
734,323.289
736,323.742
738,324.202
740,324.67
742,325.147
744,325.633
746,326.127
748,326.631
750,327.144
752,327.666
754,328.198
756,328.741
758,329.294
760,329.858
762,330.434
764,331.02
766,331.619
768,332.23
770,332.853
772,333.489
774,334.138
776,334.801
778,335.477
780,336.169
782,336.874
784,337.595
786,338.331
788,339.083
790,339.851
792,340.635
794,341.436
796,342.254
798,343.089
800,343.942
802,344.812
804,345.701
806,346.607
808,347.532
810,348.474
812,349.434
814,350.412
816,351.408
818,352.421
820,353.449
822,354.495
824,355.555
826,356.63
828,357.718
830,358.819
832,359.93
834,361.051
836,362.181
838,363.317
840,364.459
842,365.603
844,366.749
846,367.896
848,369.04
850,370.181
852,371.318
854,372.448
856,373.57
858,374.683
860,375.787
862,376.879
864,377.961
866,379.03
868,380.087
870,381.132
872,382.164
874,383.183
876,384.189
878,385.183
880,386.165
882,387.134
884,388.092
886,389.038
888,389.973
890,390.897
892,391.811
894,392.714
896,393.606
898,394.489
900,395.362
902,396.226
904,397.081
906,397.927
908,398.764
910,399.592
912,400.411
914,401.223
916,402.026
918,402.821
920,403.608
922,404.387
924,405.159
926,405.923
928,406.679
930,407.428
932,408.17
934,408.904
936,409.632
938,410.352
940,411.065
942,411.772
944,412.471
946,413.164
948,413.85
950,414.529
952,415.202
954,415.869
956,416.529
958,417.183
960,417.83
962,418.471
964,419.106
966,419.734
968,420.357
970,420.974
972,421.584
974,422.189
976,422.788
978,423.381
980,423.968
982,424.55
984,425.126
986,425.696
988,426.261
990,426.82
992,427.374
994,427.923
996,428.466
998,429.004
1000,429.536
1000,429.536
1000,429.536
1010,432.121
1010,432.121
1010,432.121
1010,432.121
1010,432.121
1020,434.582
1020,434.582
1020,434.582
1020,434.582
1020,434.582
1030,436.923
1030,436.923
1030,436.923
1030,436.923
1030,436.923
1040,439.151
1040,439.151
1040,439.151
1040,439.151
1040,439.151
1050,441.27
1050,441.27
1050,441.27
1050,441.27
1050,441.27
1060,443.285
1060,443.285
1060,443.285
1060,443.285
1060,443.285
1070,445.202
1070,445.202
1070,445.202
1070,445.202
1070,445.202
1080,447.023
1080,447.023
1080,447.023
1080,447.023
1080,447.023
1090,448.755
1090,448.755
1090,448.755
1090,448.755
1090,448.755
1100,450.401
1100,450.401
1100,450.401
1100,450.401
1100,450.401
1110,451.965
1110,451.965
1110,451.965
1110,451.965
1110,451.965
1120,453.451
1120,453.451
1120,453.451
1120,453.451
1120,453.451
1130,454.862
1130,454.862
1130,454.862
1130,454.862
1130,454.862
1140,456.203
1140,456.203
1140,456.203
1140,456.203
1140,456.203
1150,457.476
1150,457.476
1150,457.476
1150,457.476
1150,457.476
1160,458.686
1160,458.686
1160,458.686
1160,458.686
1160,458.686
1170,459.834
1170,459.834
1170,459.834
1170,459.834
1170,459.834
1180,460.924
1180,460.924
1180,460.924
1180,460.924
1180,460.924
1190,461.959
1190,461.959
1190,461.959
1190,461.959
1190,461.959
1200,462.941
1200,462.941
1200,462.941
1200,462.941
1200,462.941
1210,463.873
1210,463.873
1210,463.873
1210,463.873
1210,463.873
1220,464.758
1220,464.758
1220,464.758
1220,464.758
1220,464.758
1230,465.598
1230,465.598
1230,465.598
1230,465.598
1230,465.598
1240,466.394
1240,466.394
1240,466.394
1240,466.394
1240,466.394
1250,467.15
1250,467.15
1250,467.15
1250,467.15
1250,467.15
1260,467.868
1260,467.868
1260,467.868
1260,467.868
1260,467.868
1270,468.548
1270,468.548
1270,468.548
1270,468.548
1270,468.548
1280,469.194
1280,469.194
1280,469.194
1280,469.194
1280,469.194
1290,469.806
1290,469.806
1290,469.806
1290,469.806
1290,469.806
1300,470.387
1300,470.387
1300,470.387
1300,470.387
1300,470.387
1310,470.938
1310,470.938
1310,470.938
1310,470.938
1310,470.938
1320,471.46
1320,471.46
1320,471.46
1320,471.46
1320,471.46
1330,471.955
1330,471.955
1330,471.955
1330,471.955
1330,471.955
1340,472.425
1340,472.425
1340,472.425
1340,472.425
1340,472.425
1350,472.871
1350,472.871
1350,472.871
1350,472.871
1350,472.871
1360,473.293
1360,473.293
1360,473.293
1360,473.293
1360,473.293
1370,473.694
1370,473.694
1370,473.694
1370,473.694
1370,473.694
1380,474.073
1380,474.073
1380,474.073
1380,474.073
1380,474.073
1390,474.434
1390,474.434
1390,474.434
1390,474.434
1390,474.434
1400,474.775
1400,474.775
1400,474.775
1400,474.775
1400,474.775
1410,475.099
1410,475.099
1410,475.099
1410,475.099
1410,475.099
1420,475.405
1420,475.405
1420,475.405
1420,475.405
1420,475.405
1430,475.696
1430,475.696
1430,475.696
1430,475.696
1430,475.696
1440,475.972
1440,475.972
1440,475.972
1440,475.972
1440,475.972
1450,476.233
1450,476.233
1450,476.233
1450,476.233
1450,476.233
1460,476.481
1460,476.481
1460,476.481
1460,476.481
1460,476.481
1470,476.716
1470,476.716
1470,476.716
1470,476.716
1470,476.716
1480,476.939
1480,476.939
1480,476.939
1480,476.939
1480,476.939
1490,477.15
1490,477.15
1490,477.15
1490,477.15
1490,477.15
1500,477.35
1500,477.35
1500,477.35
1500,477.35
1500,477.35
1510,477.539
1510,477.539
1510,477.539
1510,477.539
1510,477.539
1520,477.719
1520,477.719
1520,477.719
1520,477.719
1520,477.719
1530,477.889
1530,477.889
1530,477.889
1530,477.889
1530,477.889
1540,478.051
1540,478.051
1540,478.051
1540,478.051
1540,478.051
1550,478.204
1550,478.204
1550,478.204
1550,478.204
1550,478.204
1560,478.349
1560,478.349
1560,478.349
1560,478.349
1560,478.349
1570,478.486
1570,478.486
1570,478.486
1570,478.486
1570,478.486
1580,478.616
1580,478.616
1580,478.616
1580,478.616
1580,478.616
1590,478.74
1590,478.74
1590,478.74
1590,478.74
1590,478.74
1600,478.857
1600,478.857
1600,478.857
1600,478.857
1600,478.857
1610,478.967
1610,478.967
1610,478.967
1610,478.967
1610,478.967
1620,479.072
1620,479.072
1620,479.072
1620,479.072
1620,479.072
1630,479.172
1630,479.172
1630,479.172
1630,479.172
1630,479.172
1640,479.266
1640,479.266
1640,479.266
1640,479.266
1640,479.266
1650,479.356
1650,479.356
1650,479.356
1650,479.356
1650,479.356
1660,479.44
1660,479.44
1660,479.44
1660,479.44
1660,479.44
1670,479.521
1670,479.521
1670,479.521
1670,479.521
1670,479.521
1680,479.597
1680,479.597
1680,479.597
1680,479.597
1680,479.597
1690,479.669
1690,479.669
1690,479.669
1690,479.669
1690,479.669
1700,479.737
1700,479.737
1700,479.737
1700,479.737
1700,479.737
1710,479.802
1710,479.802
1710,479.802
1710,479.802
1710,479.802
1720,479.863
1720,479.863
1720,479.863
1720,479.863
1720,479.863
1730,479.921
1730,479.921
1730,479.921
1730,479.921
1730,479.921
1740,479.976
1740,479.976
1740,479.976
1740,479.976
1740,479.976
1750,480.028
1750,480.028
1750,480.028
1750,480.028
1750,480.028
1760,480.078
1760,480.078
1760,480.078
1760,480.078
1760,480.078
1770,480.125
1770,480.125
1770,480.125
1770,480.125
1770,480.125
1780,480.169
1780,480.169
1780,480.169
1780,480.169
1780,480.169
1790,480.211
1790,480.211
1790,480.211
1790,480.211
1790,480.211
1800,480.251
1800,480.251
1800,480.251