File: results/E_Glass/E_Glass_linear_tga_M_BT/E_Glass_linear_tga_M_BT_0_cone_Mass.csv
# Time [s], Mass [Kg]
0.000000000000000000e+00,1
2,1
4,1
6,1
8,1
10,1
12,1
14,1
16,1
18,1
20,1
22,1
24,1
26,1
28,1
30,1
32,1
34,1
36,1
38,1
40,1
42,1
44,1
46,1
48,1
50,1
52,1
54,1
56,1
58,1
60,1
62,1
64,1
66,1
68,1
70,1
72,1
74,1
76,1
78,1
80,1
82,1
84,1
86,1
88,1
90,1
92,1
94,1
96,1
98,1
100,1
102,1
104,1
106,1
108,1
110,1
112,1
114,1
116,1
118,1
120,1
122,1
124,1
126,1
128,1
130,1
132,1
134,1
136,1
138,1
140,1
142,1
144,1
146,1
148,1
150,1
152,1
154,1
156,1
158,0.999999
160,0.999999
162,0.999999
164,0.999999
166,0.999999
168,0.999999
170,0.999999
172,0.999998
174,0.999998
176,0.999998
178,0.999997
180,0.999997
182,0.999997
184,0.999996
186,0.999995
188,0.999995
190,0.999994
192,0.999993
194,0.999992
196,0.999991
198,0.99999
200,0.999988
202,0.999987
204,0.999985
206,0.999983
208,0.999981
210,0.999978
212,0.999975
214,0.999972
216,0.999968
218,0.999964
220,0.99996
222,0.999955
224,0.999949
226,0.999943
228,0.999936
230,0.999928
232,0.99992
234,0.99991
236,0.9999
238,0.999888
240,0.999875
242,0.999861
244,0.999845
246,0.999828
248,0.999808
250,0.999787
252,0.999764
254,0.999739
256,0.999711
258,0.99968
260,0.999646
262,0.99961
264,0.999569
266,0.999525
268,0.999477
270,0.999425
272,0.999368
274,0.999306
276,0.999238
278,0.999165
280,0.999085
282,0.998999
284,0.998905
286,0.998804
288,0.998695
290,0.998576
292,0.998449
294,0.998311
296,0.998163
298,0.998004
300,0.997833
302,0.99765
304,0.997454
306,0.997243
308,0.997018
310,0.996778
312,0.996522
314,0.996248
316,0.995958
318,0.995649
320,0.995321
322,0.994974
324,0.994606
326,0.994216
328,0.993806
330,0.993372
332,0.992916
334,0.992436
336,0.991932
338,0.991403
340,0.990849
342,0.990269
344,0.989664
346,0.989032
348,0.988374
350,0.987689
352,0.986978
354,0.986239
356,0.985474
358,0.984682
360,0.983863
362,0.983018
364,0.982146
366,0.981248
368,0.980325
370,0.979375
372,0.978401
374,0.977403
376,0.97638
378,0.975334
380,0.974265
382,0.973173
384,0.972059
386,0.970924
388,0.969768
390,0.968592
392,0.967397
394,0.966183
396,0.96495
398,0.9637
400,0.962434
402,0.961151
404,0.959852
406,0.958538
408,0.95721
410,0.955867
412,0.954512
414,0.953143
416,0.951763
418,0.95037
420,0.948967
422,0.947553
424,0.946129
426,0.944695
428,0.943251
430,0.941799
432,0.940338
434,0.93887
436,0.937393
438,0.93591
440,0.93442
442,0.932923
444,0.93142
446,0.929911
448,0.928397
450,0.926878
452,0.925353
454,0.923824
456,0.922292
458,0.920755
460,0.919214
462,0.91767
464,0.916123
466,0.914573
468,0.913021
470,0.911466
472,0.909909
474,0.908351
476,0.906791
478,0.905229
480,0.903667
482,0.902104
484,0.900541
486,0.898977
488,0.897414
490,0.895851
492,0.894288
494,0.892727
496,0.891166
498,0.889607
500,0.88805
502,0.886494
504,0.884941
506,0.883391
508,0.881843
510,0.880298
512,0.878756
514,0.877218
516,0.875684
518,0.874154
520,0.872629
522,0.871108
524,0.869592
526,0.868082
528,0.866577
530,0.865077
532,0.863584
534,0.862096
536,0.860615
538,0.859141
540,0.857674
542,0.856213
544,0.85476
546,0.853314
548,0.851876
550,0.850445
552,0.849023
554,0.847608
556,0.846201
558,0.844802
560,0.843411
562,0.842029
564,0.840655
566,0.839289
568,0.837932
570,0.836583
572,0.835243
574,0.833911
576,0.832588
578,0.831273
580,0.829967
582,0.828669
584,0.827379
586,0.826098
588,0.824826
590,0.823562
592,0.822307
594,0.82106
596,0.819821
598,0.818591
600,0.817369
602,0.816156
604,0.814951
606,0.813754
608,0.812566
610,0.811386
612,0.810214
614,0.809051
616,0.807896
618,0.806749
620,0.80561
622,0.80448
624,0.803358
626,0.802244
628,0.801138
630,0.80004
632,0.79895
634,0.797869
636,0.796795
638,0.79573
640,0.794673
642,0.793624
644,0.792583
646,0.79155
648,0.790525
650,0.789508
652,0.788499
654,0.787498
656,0.786505
658,0.78552
660,0.784543
662,0.783574
664,0.782614
666,0.781661
668,0.780716
670,0.779779
672,0.778851
674,0.77793
676,0.777018
678,0.776113
680,0.775217
682,0.774328
684,0.773448
686,0.772576
688,0.771712
690,0.770857
692,0.770009
694,0.76917
696,0.768339
698,0.767516
700,0.766702
702,0.765896
704,0.765098
706,0.764309
708,0.763528
710,0.762756
712,0.761992
714,0.761237
716,0.76049
718,0.759752
720,0.759023
722,0.758302
724,0.757591
726,0.756888
728,0.756194
730,0.755509
732,0.754834
734,0.754167
736,0.75351
738,0.752862
740,0.752223
742,0.751594
744,0.750974
746,0.750364
748,0.749763
750,0.749173
752,0.748592
754,0.748021
756,0.74746
758,0.74691
760,0.746369
762,0.74584
764,0.74532
766,0.744811
768,0.744313
770,0.743826
772,0.743349
774,0.742884
776,0.74243
778,0.741987
780,0.741556
782,0.741136
784,0.740727
786,0.740331
788,0.739947
790,0.739574
792,0.739214
794,0.738866
796,0.73853
798,0.738206
800,0.737896
802,0.737597
804,0.737312
806,0.737039
808,0.736779
810,0.736531
812,0.736296
814,0.736074
816,0.735865
818,0.735668
820,0.735483
822,0.735311
824,0.735151
826,0.735002
828,0.734865
830,0.73474
832,0.734625
834,0.73452
836,0.734426
838,0.734341
840,0.734265
842,0.734198
844,0.734139
846,0.734087
848,0.734041
850,0.734002
852,0.733969
854,0.73394
856,0.733916
858,0.733895
860,0.733878
862,0.733865
864,0.733853
866,0.733844
868,0.733836
870,0.73383
872,0.733825
874,0.733822
876,0.733819
878,0.733816
880,0.733814
882,0.733813
884,0.733812
886,0.733811
888,0.733811
890,0.73381
892,0.73381
894,0.733809
896,0.733809
898,0.733809
900,0.733809
902,0.733809
904,0.733809
906,0.733809
908,0.733809
910,0.733809
912,0.733809
914,0.733809
916,0.733809
918,0.733809
920,0.733809
922,0.733809
924,0.733809
926,0.733809
928,0.733809
930,0.733809
932,0.733809
934,0.733809
936,0.733809
938,0.733809
940,0.733809
942,0.733809
944,0.733809
946,0.733809
948,0.733809
950,0.733809
952,0.733809
954,0.733809
956,0.733809
958,0.733809
960,0.733809
962,0.733809
964,0.733809
966,0.733809
968,0.733809
970,0.733809
972,0.733809
974,0.733809
976,0.733809
978,0.733809
980,0.733809
982,0.733809
984,0.733809
986,0.733809
988,0.733809
990,0.733809
992,0.733809
994,0.733809
996,0.733809
998,0.733809
1000,0.733809
1000,0.733809
1000,0.733809
1010,0.733809
1010,0.733809
1010,0.733809
1010,0.733809
1010,0.733809
1020,0.733809
1020,0.733809
1020,0.733809
1020,0.733809
1020,0.733809
1030,0.733809
1030,0.733809
1030,0.733809
1030,0.733809
1030,0.733809
1040,0.733809
1040,0.733809
1040,0.733809
1040,0.733809
1040,0.733809
1050,0.733809
1050,0.733809
1050,0.733809
1050,0.733809
1050,0.733809
1060,0.733809
1060,0.733809
1060,0.733809
1060,0.733809
1060,0.733809
1070,0.733809
1070,0.733809
1070,0.733809
1070,0.733809
1070,0.733809
1080,0.733809
1080,0.733809
1080,0.733809
1080,0.733809
1080,0.733809
1090,0.733809
1090,0.733809
1090,0.733809
1090,0.733809
1090,0.733809
1100,0.733809
1100,0.733809
1100,0.733809
1100,0.733809
1100,0.733809
1110,0.733809
1110,0.733809
1110,0.733809
1110,0.733809
1110,0.733809
1120,0.733809
1120,0.733809
1120,0.733809
1120,0.733809
1120,0.733809
1130,0.733809
1130,0.733809
1130,0.733809
1130,0.733809
1130,0.733809
1140,0.733809
1140,0.733809
1140,0.733809
1140,0.733809
1140,0.733809
1150,0.733809
1150,0.733809
1150,0.733809
1150,0.733809
1150,0.733809
1160,0.733809
1160,0.733809
1160,0.733809
1160,0.733809
1160,0.733809
1170,0.733809
1170,0.733809
1170,0.733809
1170,0.733809
1170,0.733809
1180,0.733809
1180,0.733809
1180,0.733809
1180,0.733809
1180,0.733809
1190,0.733809
1190,0.733809
1190,0.733809
1190,0.733809
1190,0.733809
1200,0.733809
1200,0.733809
1200,0.733809
1200,0.733809
1200,0.733809
1210,0.733809
1210,0.733809
1210,0.733809
1210,0.733809
1210,0.733809
1220,0.733809
1220,0.733809
1220,0.733809
1220,0.733809
1220,0.733809
1230,0.733809
1230,0.733809
1230,0.733809
1230,0.733809
1230,0.733809
1240,0.733809
1240,0.733809
1240,0.733809
1240,0.733809
1240,0.733809
1250,0.733809
1250,0.733809
1250,0.733809
1250,0.733809
1250,0.733809
1260,0.733809
1260,0.733809
1260,0.733809
1260,0.733809
1260,0.733809
1270,0.733809
1270,0.733809
1270,0.733809
1270,0.733809
1270,0.733809
1280,0.733809
1280,0.733809
1280,0.733809
1280,0.733809
1280,0.733809
1290,0.733809
1290,0.733809
1290,0.733809
1290,0.733809
1290,0.733809
1300,0.733809
1300,0.733809
1300,0.733809
1300,0.733809
1300,0.733809
1310,0.733809
1310,0.733809
1310,0.733809
1310,0.733809
1310,0.733809
1320,0.733809
1320,0.733809
1320,0.733809
1320,0.733809
1320,0.733809
1330,0.733809
1330,0.733809
1330,0.733809
1330,0.733809
1330,0.733809
1340,0.733809
1340,0.733809
1340,0.733809
1340,0.733809
1340,0.733809
1350,0.733809
1350,0.733809
1350,0.733809
1350,0.733809
1350,0.733809
1360,0.733809
1360,0.733809
1360,0.733809
1360,0.733809
1360,0.733809
1370,0.733809
1370,0.733809
1370,0.733809
1370,0.733809
1370,0.733809
1380,0.733809
1380,0.733809
1380,0.733809
1380,0.733809
1380,0.733809
1390,0.733809
1390,0.733809
1390,0.733809
1390,0.733809
1390,0.733809
1400,0.733809
1400,0.733809
1400,0.733809
1400,0.733809
1400,0.733809
1410,0.733809
1410,0.733809
1410,0.733809
1410,0.733809
1410,0.733809
1420,0.733809
1420,0.733809
1420,0.733809
1420,0.733809
1420,0.733809
1430,0.733809
1430,0.733809
1430,0.733809
1430,0.733809
1430,0.733809
1440,0.733809
1440,0.733809
1440,0.733809
1440,0.733809
1440,0.733809
1450,0.733809
1450,0.733809
1450,0.733809
1450,0.733809
1450,0.733809
1460,0.733809
1460,0.733809
1460,0.733809
1460,0.733809
1460,0.733809
1470,0.733809
1470,0.733809
1470,0.733809
1470,0.733809
1470,0.733809
1480,0.733809
1480,0.733809
1480,0.733809
1480,0.733809
1480,0.733809
1490,0.733809
1490,0.733809
1490,0.733809
1490,0.733809
1490,0.733809
1500,0.733809
1500,0.733809
1500,0.733809
1500,0.733809
1500,0.733809
1510,0.733809
1510,0.733809
1510,0.733809
1510,0.733809
1510,0.733809
1520,0.733809
1520,0.733809
1520,0.733809
1520,0.733809
1520,0.733809
1530,0.733809
1530,0.733809
1530,0.733809
1530,0.733809
1530,0.733809
1540,0.733809
1540,0.733809
1540,0.733809
1540,0.733809
1540,0.733809
1550,0.733809
1550,0.733809
1550,0.733809
1550,0.733809
1550,0.733809
1560,0.733809
1560,0.733809
1560,0.733809
1560,0.733809
1560,0.733809
1570,0.733809
1570,0.733809
1570,0.733809
1570,0.733809
1570,0.733809
1580,0.733809
1580,0.733809
1580,0.733809
1580,0.733809
1580,0.733809
1590,0.733809
1590,0.733809
1590,0.733809
1590,0.733809
1590,0.733809
1600,0.733809
1600,0.733809
1600,0.733809
1600,0.733809
1600,0.733809
1610,0.733809
1610,0.733809
1610,0.733809
1610,0.733809
1610,0.733809
1620,0.733809
1620,0.733809
1620,0.733809
1620,0.733809
1620,0.733809
1630,0.733809
1630,0.733809
1630,0.733809
1630,0.733809
1630,0.733809
1640,0.733809
1640,0.733809
1640,0.733809
1640,0.733809
1640,0.733809
1650,0.733809
1650,0.733809
1650,0.733809
1650,0.733809
1650,0.733809
1660,0.733809
1660,0.733809
1660,0.733809
1660,0.733809
1660,0.733809
1670,0.733809
1670,0.733809
1670,0.733809
1670,0.733809
1670,0.733809
1680,0.733809
1680,0.733809
1680,0.733809
1680,0.733809
1680,0.733809
1690,0.733809
1690,0.733809
1690,0.733809
1690,0.733809
1690,0.733809
1700,0.733809
1700,0.733809
1700,0.733809
1700,0.733809
1700,0.733809
1710,0.733809
1710,0.733809
1710,0.733809
1710,0.733809
1710,0.733809
1720,0.733809
1720,0.733809
1720,0.733809
1720,0.733809
1720,0.733809
1730,0.733809
1730,0.733809
1730,0.733809
1730,0.733809
1730,0.733809
1740,0.733809
1740,0.733809
1740,0.733809
1740,0.733809
1740,0.733809
1750,0.733809
1750,0.733809
1750,0.733809
1750,0.733809
1750,0.733809
1760,0.733809
1760,0.733809
1760,0.733809
1760,0.733809
1760,0.733809
1770,0.733809
1770,0.733809
1770,0.733809
1770,0.733809
1770,0.733809
1780,0.733809
1780,0.733809
1780,0.733809
1780,0.733809
1780,0.733809
1790,0.733809
1790,0.733809
1790,0.733809
1790,0.733809
1790,0.733809
1800,0.733809
1800,0.733809
1800,0.733809