File: results/E_Glass/E_Glass_linear_tga_M/E_Glass_linear_tga_M_0_cone_Mass.csv
# Time [s], Mass [Kg]
0.000000000000000000e+00,1
2,1
4,1
6,1
8,1
10,1
12,1
14,1
16,1
18,1
20,1
22,1
24,1
26,1
28,1
30,1
32,1
34,1
36,1
38,1
40,1
42,1
44,1
46,1
48,1
50,1
52,1
54,1
56,1
58,1
60,1
62,1
64,1
66,1
68,1
70,1
72,1
74,1
76,1
78,1
80,1
82,1
84,1
86,1
88,0.999999
90,0.999999
92,0.999999
94,0.999999
96,0.999999
98,0.999999
100,0.999999
102,0.999998
104,0.999998
106,0.999998
108,0.999997
110,0.999997
112,0.999996
114,0.999996
116,0.999995
118,0.999994
120,0.999994
122,0.999993
124,0.999992
126,0.99999
128,0.999989
130,0.999988
132,0.999986
134,0.999984
136,0.999982
138,0.99998
140,0.999978
142,0.999975
144,0.999972
146,0.999969
148,0.999966
150,0.999962
152,0.999957
154,0.999953
156,0.999948
158,0.999942
160,0.999936
162,0.999929
164,0.999922
166,0.999914
168,0.999905
170,0.999896
172,0.999885
174,0.999874
176,0.999862
178,0.999849
180,0.999835
182,0.99982
184,0.999803
186,0.999785
188,0.999766
190,0.999745
192,0.999723
194,0.999699
196,0.999673
198,0.999645
200,0.999615
202,0.999584
204,0.999549
206,0.999513
208,0.999473
210,0.999431
212,0.999387
214,0.999339
216,0.999288
218,0.999233
220,0.999175
222,0.999114
224,0.999048
226,0.998978
228,0.998905
230,0.998826
232,0.998743
234,0.998655
236,0.998561
238,0.998463
240,0.998359
242,0.998248
244,0.998132
246,0.998009
248,0.99788
250,0.997744
252,0.997601
254,0.99745
256,0.997292
258,0.997126
260,0.996952
262,0.996769
264,0.996578
266,0.996377
268,0.996168
270,0.995949
272,0.99572
274,0.995481
276,0.995232
278,0.994972
280,0.994701
282,0.99442
284,0.994127
286,0.993822
288,0.993506
290,0.993178
292,0.992837
294,0.992484
296,0.992119
298,0.99174
300,0.991349
302,0.990944
304,0.990525
306,0.990094
308,0.989648
310,0.989188
312,0.988715
314,0.988227
316,0.987724
318,0.987208
320,0.986676
322,0.98613
324,0.98557
326,0.984994
328,0.984403
330,0.983797
332,0.983177
334,0.982541
336,0.981889
338,0.981223
340,0.980541
342,0.979844
344,0.979132
346,0.978404
348,0.977661
350,0.976902
352,0.976128
354,0.975339
356,0.974535
358,0.973715
360,0.97288
362,0.97203
364,0.971164
366,0.970284
368,0.969388
370,0.968478
372,0.967552
374,0.966612
376,0.965657
378,0.964688
380,0.963704
382,0.962705
384,0.961693
386,0.960666
388,0.959625
390,0.95857
392,0.957502
394,0.95642
396,0.955325
398,0.954216
400,0.953094
402,0.95196
404,0.950813
406,0.949653
408,0.948481
410,0.947297
412,0.946102
414,0.944895
416,0.943676
418,0.942447
420,0.941206
422,0.939955
424,0.938694
426,0.937423
428,0.936142
430,0.934852
432,0.933553
434,0.932244
436,0.930928
438,0.929603
440,0.92827
442,0.926929
444,0.925581
446,0.924227
448,0.922865
450,0.921497
452,0.920124
454,0.918744
456,0.917359
458,0.915969
460,0.914574
462,0.913175
464,0.911772
466,0.910365
468,0.908954
470,0.90754
472,0.906124
474,0.904705
476,0.903283
478,0.90186
480,0.900435
482,0.899009
484,0.897581
486,0.896153
488,0.894724
490,0.893294
492,0.891865
494,0.890436
496,0.889007
498,0.88758
500,0.886153
502,0.884727
504,0.883303
506,0.88188
508,0.880459
510,0.87904
512,0.877624
514,0.87621
516,0.874798
518,0.87339
520,0.871984
522,0.870582
524,0.869183
526,0.867787
528,0.866395
530,0.865007
532,0.863623
534,0.862243
536,0.860867
538,0.859496
540,0.858129
542,0.856767
544,0.855409
546,0.854056
548,0.852709
550,0.851366
552,0.850028
554,0.848696
556,0.847369
558,0.846047
560,0.844731
562,0.84342
564,0.842116
566,0.840816
568,0.839523
570,0.838236
572,0.836954
574,0.835678
576,0.834409
578,0.833146
580,0.831888
582,0.830637
584,0.829393
586,0.828154
588,0.826922
590,0.825697
592,0.824477
594,0.823265
596,0.822059
598,0.820859
600,0.819666
602,0.81848
604,0.817301
606,0.816128
608,0.814962
610,0.813802
612,0.81265
614,0.811504
616,0.810366
618,0.809234
620,0.808109
622,0.806991
624,0.805881
626,0.804777
628,0.80368
630,0.802591
632,0.801508
634,0.800433
636,0.799365
638,0.798304
640,0.79725
642,0.796204
644,0.795164
646,0.794133
648,0.793108
650,0.792091
652,0.791081
654,0.790079
656,0.789085
658,0.788097
660,0.787118
662,0.786146
664,0.785181
666,0.784224
668,0.783275
670,0.782333
672,0.7814
674,0.780474
676,0.779556
678,0.778645
680,0.777743
682,0.776848
684,0.775962
686,0.775083
688,0.774213
690,0.77335
692,0.772496
694,0.77165
696,0.770812
698,0.769983
700,0.769161
702,0.768348
704,0.767544
706,0.766748
708,0.76596
710,0.765181
712,0.764411
714,0.763649
716,0.762896
718,0.762152
720,0.761417
722,0.76069
724,0.759973
726,0.759264
728,0.758565
730,0.757874
732,0.757193
734,0.756521
736,0.755859
738,0.755205
740,0.754562
742,0.753927
744,0.753302
746,0.752687
748,0.752082
750,0.751486
752,0.7509
754,0.750324
756,0.749758
758,0.749201
760,0.748655
762,0.748119
764,0.747593
766,0.747077
768,0.746572
770,0.746077
772,0.745592
774,0.745118
776,0.744654
778,0.744201
780,0.743758
782,0.743326
784,0.742904
786,0.742494
788,0.742093
790,0.741704
792,0.741325
794,0.740957
796,0.7406
798,0.740254
800,0.739918
802,0.739593
804,0.739279
806,0.738975
808,0.738682
810,0.738399
812,0.738127
814,0.737866
816,0.737615
818,0.737374
820,0.737143
822,0.736922
824,0.736711
826,0.73651
828,0.736319
830,0.736137
832,0.735965
834,0.735801
836,0.735646
838,0.735501
840,0.735363
842,0.735234
844,0.735113
846,0.734999
848,0.734893
850,0.734795
852,0.734703
854,0.734618
856,0.734539
858,0.734466
860,0.734399
862,0.734338
864,0.734282
866,0.73423
868,0.734183
870,0.734141
872,0.734102
874,0.734068
876,0.734036
878,0.734008
880,0.733983
882,0.733961
884,0.733941
886,0.733923
888,0.733908
890,0.733894
892,0.733882
894,0.733871
896,0.733862
898,0.733854
900,0.733847
902,0.733841
904,0.733836
906,0.733832
908,0.733828
910,0.733825
912,0.733822
914,0.73382
916,0.733818
918,0.733816
920,0.733815
922,0.733814
924,0.733813
926,0.733812
928,0.733811
930,0.733811
932,0.733811
934,0.73381
936,0.73381
938,0.73381
940,0.733809
942,0.733809
944,0.733809
946,0.733809
948,0.733809
950,0.733809
952,0.733809
954,0.733809
956,0.733809
958,0.733809
960,0.733809
962,0.733809
964,0.733809
966,0.733809
968,0.733809
970,0.733809
972,0.733809
974,0.733809
976,0.733809
978,0.733809
980,0.733809
982,0.733809
984,0.733809
986,0.733809
988,0.733809
990,0.733809
992,0.733809
994,0.733809
996,0.733809
998,0.733809
1000,0.733809
1000,0.733809
1000,0.733809
1010,0.733809
1010,0.733809
1010,0.733809
1010,0.733809
1010,0.733809
1020,0.733809
1020,0.733809
1020,0.733809
1020,0.733809
1020,0.733809
1030,0.733809
1030,0.733809
1030,0.733809
1030,0.733809
1030,0.733809
1040,0.733809
1040,0.733809
1040,0.733809
1040,0.733809
1040,0.733809
1050,0.733809
1050,0.733809
1050,0.733809
1050,0.733809
1050,0.733809
1060,0.733809
1060,0.733809
1060,0.733809
1060,0.733809
1060,0.733809
1070,0.733809
1070,0.733809
1070,0.733809
1070,0.733809
1070,0.733809
1080,0.733809
1080,0.733809
1080,0.733809
1080,0.733809
1080,0.733809
1090,0.733809
1090,0.733809
1090,0.733809
1090,0.733809
1090,0.733809
1100,0.733809
1100,0.733809
1100,0.733809
1100,0.733809
1100,0.733809
1110,0.733809
1110,0.733809
1110,0.733809
1110,0.733809
1110,0.733809
1120,0.733809
1120,0.733809
1120,0.733809
1120,0.733809
1120,0.733809
1130,0.733809
1130,0.733809
1130,0.733809
1130,0.733809
1130,0.733809
1140,0.733809
1140,0.733809
1140,0.733809
1140,0.733809
1140,0.733809
1150,0.733809
1150,0.733809
1150,0.733809
1150,0.733809
1150,0.733809
1160,0.733809
1160,0.733809
1160,0.733809
1160,0.733809
1160,0.733809
1170,0.733809
1170,0.733809
1170,0.733809
1170,0.733809
1170,0.733809
1180,0.733809
1180,0.733809
1180,0.733809
1180,0.733809
1180,0.733809
1190,0.733809
1190,0.733809
1190,0.733809
1190,0.733809
1190,0.733809
1200,0.733809
1200,0.733809
1200,0.733809
1200,0.733809
1200,0.733809
1210,0.733809
1210,0.733809
1210,0.733809
1210,0.733809
1210,0.733809
1220,0.733809
1220,0.733809
1220,0.733809
1220,0.733809
1220,0.733809
1230,0.733809
1230,0.733809
1230,0.733809
1230,0.733809
1230,0.733809
1240,0.733809
1240,0.733809
1240,0.733809
1240,0.733809
1240,0.733809
1250,0.733809
1250,0.733809
1250,0.733809
1250,0.733809
1250,0.733809
1260,0.733809
1260,0.733809
1260,0.733809
1260,0.733809
1260,0.733809
1270,0.733809
1270,0.733809
1270,0.733809
1270,0.733809
1270,0.733809
1280,0.733809
1280,0.733809
1280,0.733809
1280,0.733809
1280,0.733809
1290,0.733809
1290,0.733809
1290,0.733809
1290,0.733809
1290,0.733809
1300,0.733809
1300,0.733809
1300,0.733809
1300,0.733809
1300,0.733809
1310,0.733809
1310,0.733809
1310,0.733809
1310,0.733809
1310,0.733809
1320,0.733809
1320,0.733809
1320,0.733809
1320,0.733809
1320,0.733809
1330,0.733809
1330,0.733809
1330,0.733809
1330,0.733809
1330,0.733809
1340,0.733809
1340,0.733809
1340,0.733809
1340,0.733809
1340,0.733809
1350,0.733809
1350,0.733809
1350,0.733809
1350,0.733809
1350,0.733809
1360,0.733809
1360,0.733809
1360,0.733809
1360,0.733809
1360,0.733809
1370,0.733809
1370,0.733809
1370,0.733809
1370,0.733809
1370,0.733809
1380,0.733809
1380,0.733809
1380,0.733809
1380,0.733809
1380,0.733809
1390,0.733809
1390,0.733809
1390,0.733809
1390,0.733809
1390,0.733809
1400,0.733809
1400,0.733809
1400,0.733809
1400,0.733809
1400,0.733809
1410,0.733809
1410,0.733809
1410,0.733809
1410,0.733809
1410,0.733809
1420,0.733809
1420,0.733809
1420,0.733809
1420,0.733809
1420,0.733809
1430,0.733809
1430,0.733809
1430,0.733809
1430,0.733809
1430,0.733809
1440,0.733809
1440,0.733809
1440,0.733809
1440,0.733809
1440,0.733809
1450,0.733809
1450,0.733809
1450,0.733809
1450,0.733809
1450,0.733809
1460,0.733809
1460,0.733809
1460,0.733809
1460,0.733809
1460,0.733809
1470,0.733809
1470,0.733809
1470,0.733809
1470,0.733809
1470,0.733809
1480,0.733809
1480,0.733809
1480,0.733809
1480,0.733809
1480,0.733809
1490,0.733809
1490,0.733809
1490,0.733809
1490,0.733809
1490,0.733809
1500,0.733809
1500,0.733809
1500,0.733809
1500,0.733809
1500,0.733809
1510,0.733809
1510,0.733809
1510,0.733809
1510,0.733809
1510,0.733809
1520,0.733809
1520,0.733809
1520,0.733809
1520,0.733809
1520,0.733809
1530,0.733809
1530,0.733809
1530,0.733809
1530,0.733809
1530,0.733809
1540,0.733809
1540,0.733809
1540,0.733809
1540,0.733809
1540,0.733809
1550,0.733809
1550,0.733809
1550,0.733809
1550,0.733809
1550,0.733809
1560,0.733809
1560,0.733809
1560,0.733809
1560,0.733809
1560,0.733809
1570,0.733809
1570,0.733809
1570,0.733809
1570,0.733809
1570,0.733809
1580,0.733809
1580,0.733809
1580,0.733809
1580,0.733809
1580,0.733809
1590,0.733809
1590,0.733809
1590,0.733809
1590,0.733809
1590,0.733809
1600,0.733809
1600,0.733809
1600,0.733809
1600,0.733809
1600,0.733809
1610,0.733809
1610,0.733809
1610,0.733809
1610,0.733809
1610,0.733809
1620,0.733809
1620,0.733809
1620,0.733809
1620,0.733809
1620,0.733809
1630,0.733809
1630,0.733809
1630,0.733809
1630,0.733809
1630,0.733809
1640,0.733809
1640,0.733809
1640,0.733809
1640,0.733809
1640,0.733809
1650,0.733809
1650,0.733809
1650,0.733809
1650,0.733809
1650,0.733809
1660,0.733809
1660,0.733809
1660,0.733809
1660,0.733809
1660,0.733809
1670,0.733809
1670,0.733809
1670,0.733809
1670,0.733809
1670,0.733809
1680,0.733809
1680,0.733809
1680,0.733809
1680,0.733809
1680,0.733809
1690,0.733809
1690,0.733809
1690,0.733809
1690,0.733809
1690,0.733809
1700,0.733809
1700,0.733809
1700,0.733809
1700,0.733809
1700,0.733809
1710,0.733809
1710,0.733809
1710,0.733809
1710,0.733809
1710,0.733809
1720,0.733809
1720,0.733809
1720,0.733809
1720,0.733809
1720,0.733809
1730,0.733809
1730,0.733809
1730,0.733809
1730,0.733809
1730,0.733809
1740,0.733809
1740,0.733809
1740,0.733809
1740,0.733809
1740,0.733809
1750,0.733809
1750,0.733809
1750,0.733809
1750,0.733809
1750,0.733809
1760,0.733809
1760,0.733809
1760,0.733809
1760,0.733809
1760,0.733809
1770,0.733809
1770,0.733809
1770,0.733809
1770,0.733809
1770,0.733809
1780,0.733809
1780,0.733809
1780,0.733809
1780,0.733809
1780,0.733809
1790,0.733809
1790,0.733809
1790,0.733809
1790,0.733809
1790,0.733809
1800,0.733809
1800,0.733809
1800,0.733809