File: results/E_Glass/E_Glass_linear_tga_M/E_Glass_linear_tga_M_progressMonitor.csv
Loop,Time,r0-A,p0-C0,p1-C0,p0-Cpa,p1-Cpa,p0-Cpb,p1-Cpb,r0-E,r0-Hp,p0-K,p1-K,Value,r0-Xi,p0-eps,p1-eps,p0-ka,p1-ka,p0-kb,p1-kb,r0-n,r0-nO2,p0-rho,p1-rho,
-1,0,2.40e+12,1.0,0.0,865.57,1927.31,0.170028,0.53255,1.64e+05,193738,7815.71,100000000.0,2.98458e-05,0.733809,0.608112,0.94,0.1939,0.294298,0.000137907,0.000283626,1.07808,0.0,1683.0,1235.0,
0,405.7825,2.40e+12,1.0,0.0,865.57,1927.31,0.170028,0.53255,1.64e+05,193738,7815.71,100000000.0,2.98458e-05,0.733809,0.608112,0.94,0.1939,0.294298,0.000137907,0.000283626,1.07808,0.0,1683.0,1235.0,
1,839.6336,2.32e+12,1.0,0.0,756.65,1893.56,0.110271,0.34873,1.77e+05,159042,21127.7,100000000.0,2.90442e-05,0.733809,0.660462,0.94,0.469356,0.180494,6.29543e-05,0.00055356,1.01975,0.0,1683.0,1235.0,
2,1292.15,2.36e+12,1.0,0.0,604.573,1712.91,0.117592,0.434656,1.74e+05,181445,19190.4,100000000.0,1.34466e-05,0.733809,0.550489,0.94,0.426822,0.221819,6.85474e-05,0.000583916,1.02518,0.0,1683.0,1235.0,
3,1735.47,2.37e+12,1.0,0.0,575.077,1699.3,0.123648,0.415471,1.74e+05,185861,19461.3,100000000.0,1.34026e-05,0.733809,0.536286,0.94,0.385109,0.254707,7.84691e-05,0.000587425,1.03974,0.0,1683.0,1235.0,
4,2203.52,2.35e+12,1.0,0.0,532.961,1950.84,0.133244,0.666067,1.74e+05,179119,13015.1,100000000.0,1.0786e-05,0.733809,0.508327,0.94,0.397102,0.211014,9.51491e-05,0.000628379,0.99795,0.0,1683.0,1235.0,
5,2664.75,2.30e+12,1.0,0.0,435.513,1898.9,0.062766,0.664908,1.76e+05,152075,18937,100000000.0,7.65701e-06,0.733809,0.457346,0.94,0.313376,0.142357,3.16639e-05,0.000597713,1.02591,0.0,1683.0,1235.0,
6,3160.38,2.27e+12,1.0,0.0,388.717,2065.27,0.0790987,0.696351,1.75e+05,155145,14504.2,100000000.0,6.69253e-06,0.733809,0.433353,0.94,0.224874,0.152378,3.46852e-05,0.000639423,1.01519,0.0,1683.0,1235.0,
7,3642.38,2.26e+12,1.0,0.0,340.012,2016.89,0.0682,0.69953,1.76e+05,149611,14475.3,100000000.0,5.65882e-06,0.733809,0.408812,0.94,0.185603,0.136078,2.39763e-05,0.000630908,1.01862,0.0,1683.0,1235.0,
8,4185.6,2.25e+12,1.0,0.0,333.471,2131.51,0.071853,0.753322,1.75e+05,148679,12586,100000000.0,5.57931e-06,0.733809,0.40359,0.94,0.183645,0.127486,2.54546e-05,0.000655648,1.00769,0.0,1683.0,1235.0,
9,4732.55,2.25e+12,1.0,0.0,318.868,2105.65,0.0696964,0.739016,1.75e+05,148355,12778,100000000.0,5.53447e-06,0.733809,0.396642,0.94,0.163874,0.13002,2.35425e-05,0.000650014,1.00991,0.0,1683.0,1235.0,
10,5295.13,2.25e+12,1.0,0.0,316.031,2065.05,0.0673412,0.75777,1.76e+05,147171,12649.3,100000000.0,5.50382e-06,0.733809,0.394992,0.94,0.165471,0.120986,2.29142e-05,0.000647495,1.00981,0.0,1683.0,1235.0,
11,5830.13,2.25e+12,1.0,0.0,311.474,2065.91,0.0672268,0.75813,1.75e+05,147297,12517.5,100000000.0,5.49931e-06,0.733809,0.39206,0.94,0.161218,0.119437,2.25095e-05,0.000647098,1.00833,0.0,1683.0,1235.0,
12,6367.81,2.26e+12,1.0,0.0,313.579,2038.15,0.0689428,0.767308,1.76e+05,147289,12291.9,100000000.0,5.49442e-06,0.733809,0.394104,0.94,0.163012,0.117616,2.4949e-05,0.000647161,1.00796,0.0,1683.0,1235.0,
13,6895.05,2.27e+12,1.0,0.0,313.57,1954.81,0.0718667,0.776009,1.76e+05,147385,12035,100000000.0,5.48758e-06,0.733809,0.395687,0.94,0.163044,0.109895,2.93817e-05,0.000643523,1.00535,0.0,1683.0,1235.0,
14,7430.41,2.27e+12,1.0,0.0,313.637,1921.81,0.0728424,0.791018,1.76e+05,146988,11740.7,100000000.0,5.48469e-06,0.733809,0.396288,0.94,0.16446,0.104519,3.11934e-05,0.000643757,1.00437,0.0,1683.0,1235.0,
15,7956.72,2.40e+12,1.0,0.0,301.666,2740.12,0.146218,0.313674,1.75e+05,150096,15704,100000000.0,5.47622e-06,0.733809,0.405464,0.94,0.126711,0.299309,0.000131199,0.000428413,0.942391,0.0,1683.0,1235.0,
16,8510.47,2.37e+12,1.0,0.0,301.882,2413.94,0.11768,0.502621,1.76e+05,146212,15086.2,100000000.0,5.45656e-06,0.733809,0.403846,0.94,0.138382,0.229237,8.51154e-05,0.000499945,0.961708,0.0,1683.0,1235.0,
17,9047.82,2.39e+12,1.0,0.0,296.143,2450.74,0.128728,0.547313,1.76e+05,146380,15026.9,100000000.0,5.43935e-06,0.733809,0.403589,0.94,0.133677,0.271205,8.95208e-05,0.000450843,0.956337,0.0,1683.0,1235.0,
18,9615.46,2.42e+12,1.0,0.0,297.567,2528.35,0.132495,0.537291,1.76e+05,146481,15200.9,100000000.0,5.43644e-06,0.733809,0.405274,0.94,0.135537,0.30289,8.95199e-05,0.000415289,0.949564,0.0,1683.0,1235.0,
19,10154.8,2.50e+12,1.0,0.0,303.669,2746.33,0.122937,0.515147,1.77e+05,144656,15179.2,100000000.0,5.42261e-06,0.733809,0.409312,0.94,0.140401,0.359463,7.65514e-05,0.00036054,0.919303,0.0,1683.0,1235.0,
20,10710.9,2.49e+12,1.0,0.0,305.03,2735.95,0.113918,0.521839,1.77e+05,143711,15099.8,100000000.0,5.42144e-06,0.733809,0.408979,0.94,0.142263,0.340512,6.77691e-05,0.000386648,0.918021,0.0,1683.0,1235.0,
21,11246.9,2.45e+12,1.0,0.0,319.368,2600.82,0.066707,0.640101,1.78e+05,138518,16691.1,100000000.0,5.41417e-06,0.733809,0.412108,0.94,0.152923,0.255619,3.7596e-05,0.000491824,0.904344,0.0,1683.0,1235.0,
22,11787.3,2.45e+12,1.0,0.0,320.986,2503.92,0.0558176,0.785668,1.78e+05,136805,17522,100000000.0,5.40951e-06,0.733809,0.4128,0.94,0.160362,0.26037,1.36172e-05,0.000483634,0.901571,0.0,1683.0,1235.0,
23,12309.6,2.44e+12,1.0,0.0,321.532,2486.42,0.0537731,0.781351,1.78e+05,136484,17991.1,100000000.0,5.40867e-06,0.733809,0.413246,0.94,0.159257,0.251896,1.54528e-05,0.00049182,0.900785,0.0,1683.0,1235.0,
24,12836.4,2.45e+12,1.0,0.0,322.071,2489.81,0.0515654,0.781284,1.78e+05,136223,17679.4,100000000.0,5.40808e-06,0.733809,0.41333,0.94,0.160924,0.247192,1.15104e-05,0.00049966,0.900039,0.0,1683.0,1235.0,
25,13363,2.44e+12,1.0,0.0,327.437,2502.09,0.0407414,0.77867,1.78e+05,136184,17342.4,100000000.0,5.40714e-06,0.733809,0.413966,0.94,0.160177,0.24566,1.13162e-05,0.000506723,0.900506,0.0,1683.0,1235.0,
26,13885.5,2.44e+12,1.0,0.0,330.123,2459.45,0.03166,0.764855,1.79e+05,135401,17102.2,100000000.0,5.40629e-06,0.733809,0.414525,0.94,0.158956,0.231606,1.24932e-05,0.000517224,0.900454,0.0,1683.0,1235.0,
27,14404.7,2.44e+12,1.0,0.0,331.441,2428.97,0.0272141,0.764859,1.79e+05,134918,17512.7,100000000.0,5.40581e-06,0.733809,0.414989,0.94,0.159246,0.230253,1.15965e-05,0.000512502,0.900057,0.0,1683.0,1235.0,
28,14933.1,2.44e+12,1.0,0.0,331.563,2414.91,0.0258624,0.764197,1.79e+05,134723,17428.4,100000000.0,5.40558e-06,0.733809,0.415059,0.94,0.159062,0.22853,1.12993e-05,0.000512169,0.900157,0.0,1683.0,1235.0,
29,15462.1,2.44e+12,1.0,0.0,330.758,2403.92,0.0277343,0.78378,1.79e+05,134735,17370.2,100000000.0,5.40535e-06,0.733809,0.415123,0.94,0.158988,0.231648,1.12179e-05,0.000507959,0.900027,0.0,1683.0,1235.0,
30,15968.7,2.44e+12,1.0,0.0,330.154,2380.52,0.0282448,0.800274,1.79e+05,134550,17359.1,100000000.0,5.4052e-06,0.733809,0.415248,0.94,0.158741,0.232676,1.12364e-05,0.000503686,0.900043,0.0,1683.0,1235.0,
31,16476.7,2.44e+12,1.0,0.0,329.854,2343.84,0.0306428,0.858515,1.79e+05,134875,18614.6,100000000.0,5.40492e-06,0.733809,0.415471,0.94,0.159139,0.235947,1.12185e-05,0.000500745,0.900414,0.0,1683.0,1235.0,
32,16981,2.41e+12,1.0,0.0,328.958,2248.68,0.0367552,1.02849,1.79e+05,135453,20899.4,100000000.0,5.40431e-06,0.733809,0.415951,0.94,0.16012,0.249494,1.15157e-05,0.000485417,0.900635,0.0,1683.0,1235.0,
33,17488.8,2.42e+12,1.0,0.0,327.773,2252.99,0.0385345,1.0137,1.79e+05,135300,20786.5,100000000.0,5.40369e-06,0.733809,0.416118,0.94,0.158915,0.258851,1.26622e-05,0.000469969,0.900103,0.0,1683.0,1235.0,
34,17971,2.43e+12,1.0,0.0,327.879,2243.32,0.0381116,1.01009,1.79e+05,135199,20785.7,100000000.0,5.40334e-06,0.733809,0.416374,0.94,0.158725,0.256993,1.30859e-05,0.000470773,0.90001,0.0,1683.0,1235.0,
35,18469.2,2.44e+12,1.0,0.0,326.395,2257.97,0.0441846,1.02285,1.79e+05,135307,22604.2,100000000.0,5.40265e-06,0.733809,0.417187,0.94,0.159354,0.261765,1.17265e-05,0.000470065,0.900212,0.0,1683.0,1235.0,
36,18961.8,2.46e+12,1.0,0.0,328.598,2217.16,0.0396796,1.03017,1.79e+05,134758,23771,100000000.0,5.40171e-06,0.733809,0.418627,0.94,0.159787,0.251599,1.13014e-05,0.00048011,0.900024,0.0,1683.0,1235.0,
37,19451,2.46e+12,1.0,0.0,328.186,2219.99,0.0404155,1.03358,1.79e+05,134741,23490,100000000.0,5.40156e-06,0.733809,0.418499,0.94,0.159621,0.25559,1.14801e-05,0.000474468,0.900029,0.0,1683.0,1235.0,
38,19949.6,2.45e+12,1.0,0.0,331.073,2153.83,0.0322599,1.00271,1.79e+05,133635,19130.2,100000000.0,5.40051e-06,0.733809,0.419704,0.94,0.160506,0.211311,1.11323e-05,0.000523039,0.900935,0.0,1683.0,1235.0,
39,20494.5,2.45e+12,1.0,0.0,332.38,2110.41,0.029234,0.99755,1.79e+05,132887,17346.2,100000000.0,5.39944e-06,0.733809,0.420959,0.94,0.160855,0.190145,1.10853e-05,0.000545609,0.901339,0.0,1683.0,1235.0,
40,21022.5,2.45e+12,1.0,0.0,332.201,2072.71,0.0307691,1.01227,1.80e+05,132191,15952.8,100000000.0,5.39801e-06,0.733809,0.422462,0.94,0.161073,0.181579,1.10703e-05,0.000553037,0.901762,0.0,1683.0,1235.0,
41,21553.5,2.45e+12,1.0,0.0,332.67,2003.81,0.0308443,1.03059,1.80e+05,131147,13841.9,100000000.0,5.39643e-06,0.733809,0.424674,0.94,0.161493,0.160946,1.10541e-05,0.000573466,0.902398,0.0,1683.0,1235.0,
42,22068,2.45e+12,1.0,0.0,332.59,1991.95,0.0314506,1.03419,1.80e+05,130954,13448.6,100000000.0,5.39597e-06,0.733809,0.425162,0.94,0.161535,0.156744,1.10928e-05,0.000578145,0.902536,0.0,1683.0,1235.0,
43,22607.2,2.46e+12,1.0,0.0,332.695,1985.55,0.0316345,1.03495,1.80e+05,130811,13247.2,100000000.0,5.39571e-06,0.733809,0.425563,0.94,0.161589,0.153975,1.10808e-05,0.000581436,0.902612,0.0,1683.0,1235.0,
44,23124.2,2.46e+12,1.0,0.0,333.065,1951.89,0.0326516,1.03523,1.80e+05,130074,11778.7,100000000.0,5.39437e-06,0.733809,0.42749,0.94,0.161812,0.136418,1.11325e-05,0.0006024,0.903086,0.0,1683.0,1235.0,
45,23658.5,2.46e+12,1.0,0.0,333.51,1913.11,0.034172,1.03476,1.80e+05,129195,10149.3,100000000.0,5.39303e-06,0.733809,0.42992,0.94,0.162076,0.114663,1.11914e-05,0.000629094,0.903656,0.0,1683.0,1235.0,
46,24188.4,2.47e+12,1.0,0.0,333.924,1883.12,0.035336,1.03405,1.81e+05,128530,9131.38,100000000.0,5.39225e-06,0.733809,0.431871,0.94,0.162309,0.0969047,1.11579e-05,0.000651439,0.904097,0.0,1683.0,1235.0,
47,24738.6,2.47e+12,1.0,0.0,334.247,1855.92,0.0367697,1.03285,1.81e+05,127891,8162.05,100000000.0,5.39206e-06,0.733809,0.433794,0.94,0.162526,0.0800205,1.11269e-05,0.000672957,0.904527,0.0,1683.0,1235.0,
48,25261.2,2.47e+12,1.0,0.0,307.168,2337.14,0.104664,0.561692,1.80e+05,132318,34918.6,100000000.0,5.3911e-06,0.733809,0.4297,0.94,0.154161,0.120424,3.65696e-05,0.000645819,0.902079,0.0,1683.0,1235.0,
49,25801.9,2.50e+12,1.0,0.0,300.083,2482.8,0.125538,0.360326,1.80e+05,132788,32779.9,100000000.0,5.39029e-06,0.733809,0.430026,0.94,0.1518,0.110702,4.63958e-05,0.000661443,0.903199,0.0,1683.0,1235.0,
50,26323.4,2.51e+12,1.0,0.0,294.771,2576.46,0.138688,0.184463,1.80e+05,132252,38114,100000000.0,5.38729e-06,0.733809,0.431862,0.94,0.149111,0.105874,5.18064e-05,0.000664766,0.902555,0.0,1683.0,1235.0,
51,26858.9,2.55e+12,1.0,0.0,287.852,2648.57,0.159401,0.0767923,1.80e+05,132692,38766.5,100000000.0,5.38625e-06,0.733809,0.432813,0.94,0.148751,0.101805,5.69212e-05,0.000671869,0.903796,0.0,1683.0,1235.0,
52,27403.6,2.56e+12,1.0,0.0,283.395,2614.12,0.175697,0.164583,1.80e+05,132640,39102.2,100000000.0,5.38415e-06,0.733809,0.434395,0.94,0.154426,0.0822069,5.20537e-05,0.000705424,0.902167,0.0,1683.0,1235.0,
53,27955.9,2.57e+12,1.0,0.0,281.345,2642.03,0.180712,0.126429,1.80e+05,132750,39061.6,100000000.0,5.38365e-06,0.733809,0.43433,0.94,0.154355,0.0835527,5.27563e-05,0.00070382,0.902505,0.0,1683.0,1235.0,
54,28487.5,2.57e+12,1.0,0.0,281.88,2565.41,0.17945,0.26118,1.80e+05,132392,39388.7,100000000.0,5.38286e-06,0.733809,0.434461,0.94,0.15798,0.0818256,4.64515e-05,0.000706739,0.901368,0.0,1683.0,1235.0,
55,29029.8,2.57e+12,1.0,0.0,281.455,2582.15,0.177515,0.235389,1.80e+05,132228,39889.3,100000000.0,5.38198e-06,0.733809,0.433938,0.94,0.157728,0.0978385,4.44598e-05,0.000681354,0.900096,0.0,1683.0,1235.0,
56,29570.5,2.57e+12,1.0,0.0,280.194,2637.17,0.180635,0.158516,1.80e+05,132240,39903.1,100000000.0,5.38172e-06,0.733809,0.434013,0.94,0.156025,0.0960429,4.76806e-05,0.000684753,0.900219,0.0,1683.0,1235.0,
57,30111.9,2.57e+12,1.0,0.0,280.063,2629.67,0.180779,0.169439,1.80e+05,132211,39923.4,100000000.0,5.38165e-06,0.733809,0.433988,0.94,0.156495,0.0976737,4.67967e-05,0.000681944,0.900002,0.0,1683.0,1235.0,
58,30645,2.57e+12,1.0,0.0,280.156,2629.66,0.180727,0.152573,1.80e+05,132085,39856.1,100000000.0,5.38161e-06,0.733809,0.434244,0.94,0.156677,0.0884993,4.71268e-05,0.00069342,0.900086,0.0,1683.0,1235.0,
59,31186.7,2.57e+12,1.0,0.0,280.136,2647.05,0.180667,0.128802,1.80e+05,132077,39971,100000000.0,5.38156e-06,0.733809,0.434263,0.94,0.1558,0.0884739,4.84405e-05,0.000693861,0.900054,0.0,1683.0,1235.0,
60,31722.4,2.56e+12,1.0,0.0,280.104,2648.72,0.1808,0.122752,1.80e+05,132032,39985.4,100000000.0,5.38153e-06,0.733809,0.434363,0.94,0.155814,0.0856367,4.85548e-05,0.000697656,0.90002,0.0,1683.0,1235.0,
61,32273.5,2.56e+12,1.0,0.0,280.104,2648.72,0.1808,0.122752,1.80e+05,132032,39985.4,100000000.0,5.38153e-06,0.733809,0.434363,0.94,0.155814,0.0856367,4.85548e-05,0.000697656,0.90002,0.0,1683.0,1235.0,
62,32799,2.56e+12,1.0,0.0,280.12,2650.26,0.180756,0.116726,1.80e+05,131992,39995.9,100000000.0,5.38153e-06,0.733809,0.434429,0.94,0.155792,0.0833827,4.86925e-05,0.000700523,0.900006,0.0,1683.0,1235.0,
63,33329.1,2.56e+12,1.0,0.0,280.105,2649.1,0.180765,0.122303,1.80e+05,132025,39990.5,100000000.0,5.38152e-06,0.733809,0.434358,0.94,0.155807,0.0856111,4.85505e-05,0.000697672,0.900013,0.0,1683.0,1235.0,
64,33840.8,2.56e+12,1.0,0.0,280.105,2649.1,0.180765,0.122303,1.80e+05,132025,39990.5,100000000.0,5.38152e-06,0.733809,0.434358,0.94,0.155807,0.0856111,4.85505e-05,0.000697672,0.900013,0.0,1683.0,1235.0,
65,34356.9,2.56e+12,1.0,0.0,280.105,2649.1,0.180765,0.122303,1.80e+05,132025,39990.5,100000000.0,5.38152e-06,0.733809,0.434358,0.94,0.155807,0.0856111,4.85505e-05,0.000697672,0.900013,0.0,1683.0,1235.0,
66,34856.1,2.56e+12,1.0,0.0,280.106,2651.41,0.180775,0.113091,1.80e+05,131965,39999.6,100000000.0,5.38152e-06,0.733809,0.434463,0.94,0.155796,0.0816768,4.87653e-05,0.000702786,0.90002,0.0,1683.0,1235.0,
67,35360.9,2.56e+12,1.0,0.0,280.106,2651.41,0.180775,0.113091,1.80e+05,131965,39999.6,100000000.0,5.38152e-06,0.733809,0.434463,0.94,0.155796,0.0816768,4.87653e-05,0.000702786,0.90002,0.0,1683.0,1235.0,
68,35855.3,2.56e+12,1.0,0.0,280.115,2650.42,0.180772,0.115342,1.80e+05,131979,39996.7,100000000.0,5.38151e-06,0.733809,0.434448,0.94,0.155808,0.0825403,4.87208e-05,0.000701607,0.900018,0.0,1683.0,1235.0,
69,36362.5,2.56e+12,1.0,0.0,280.115,2650.42,0.180772,0.115342,1.80e+05,131979,39996.7,100000000.0,5.38151e-06,0.733809,0.434448,0.94,0.155808,0.0825403,4.87208e-05,0.000701607,0.900018,0.0,1683.0,1235.0,
70,36849.4,2.56e+12,1.0,0.0,280.115,2650.42,0.180772,0.115342,1.80e+05,131979,39996.7,100000000.0,5.38151e-06,0.733809,0.434448,0.94,0.155808,0.0825403,4.87208e-05,0.000701607,0.900018,0.0,1683.0,1235.0,
71,37350.1,2.56e+12,1.0,0.0,280.115,2648.73,0.180779,0.118913,1.80e+05,131993,39993.9,100000000.0,5.38151e-06,0.733809,0.434425,0.94,0.155865,0.0833996,4.85913e-05,0.000700468,0.900023,0.0,1683.0,1235.0,
72,37842.2,2.56e+12,1.0,0.0,280.115,2648.73,0.180779,0.118913,1.80e+05,131993,39993.9,100000000.0,5.38151e-06,0.733809,0.434425,0.94,0.155865,0.0833996,4.85913e-05,0.000700468,0.900023,0.0,1683.0,1235.0,
73,38328.7,2.56e+12,1.0,0.0,280.115,2648.73,0.180779,0.118913,1.80e+05,131993,39993.9,100000000.0,5.38151e-06,0.733809,0.434425,0.94,0.155865,0.0833996,4.85913e-05,0.000700468,0.900023,0.0,1683.0,1235.0,
74,38805.7,2.56e+12,1.0,0.0,280.115,2648.73,0.180779,0.118913,1.80e+05,131993,39993.9,100000000.0,5.38151e-06,0.733809,0.434425,0.94,0.155865,0.0833996,4.85913e-05,0.000700468,0.900023,0.0,1683.0,1235.0,
75,39305.3,2.56e+12,1.0,0.0,280.115,2648.73,0.180779,0.118913,1.80e+05,131993,39993.9,100000000.0,5.38151e-06,0.733809,0.434425,0.94,0.155865,0.0833996,4.85913e-05,0.000700468,0.900023,0.0,1683.0,1235.0,
76,39782.6,2.30e+12,1.0,0.0,1095.01,1490.13,0.137871,1.00219,1.78e+05,117430,20431.9,100000000.0,5.37996e-06,0.733809,0.939353,0.94,0.259896,0.107411,0.000175988,0.000454579,0.921652,0.0,1683.0,1235.0,
77,40273.4,2.29e+12,1.0,0.0,1090.68,1436.54,0.164292,1.01976,1.78e+05,116886,23261.7,100000000.0,5.37508e-06,0.733809,0.94132,0.94,0.263832,0.106554,0.000174541,0.000441664,0.926648,0.0,1683.0,1235.0,
78,40750.7,2.30e+12,1.0,0.0,1085.53,1432.67,0.178428,1.00832,1.78e+05,116523,24271.3,100000000.0,5.37327e-06,0.733809,0.94198,0.94,0.263462,0.113693,0.000176075,0.000425824,0.926251,0.0,1683.0,1235.0,
79,41241.6,2.31e+12,1.0,0.0,1105.24,1406.07,0.150489,1.01293,1.78e+05,116680,20661.8,100000000.0,5.37074e-06,0.733809,0.947324,0.94,0.267668,0.181939,0.000171489,0.000321205,0.92576,0.0,1683.0,1235.0,
80,41729.2,2.28e+12,1.0,0.0,1100.93,1353.14,0.171697,1.00004,1.78e+05,116383,25005.3,100000000.0,5.36779e-06,0.733809,0.946456,0.94,0.267113,0.157643,0.000175674,0.00034205,0.93596,0.0,1683.0,1235.0,
81,42219.1,2.37e+12,1.0,0.0,1126.76,1527.65,0.116996,0.604918,1.78e+05,116447,19200,100000000.0,5.3604e-06,0.733809,0.946213,0.94,0.268114,0.285209,0.00016983,0.000136727,0.944288,0.0,1683.0,1235.0,
82,42715.3,2.43e+12,1.0,0.0,1138.02,1607.96,0.0974182,0.402365,1.78e+05,116583,17679.1,100000000.0,5.3562e-06,0.733809,0.946678,0.94,0.267387,0.294714,0.000171203,0.000115393,0.952625,0.0,1683.0,1235.0,
83,43219.3,2.45e+12,1.0,0.0,1159.32,1500.22,0.0462213,0.492267,1.79e+05,116392,25924.9,100000000.0,5.35158e-06,0.733809,0.949269,0.94,0.264714,0.138272,0.00017378,0.0003488,0.964023,0.0,1683.0,1235.0,
84,43728.2,2.44e+12,1.0,0.0,1167.73,1429.98,0.0365684,0.587484,1.79e+05,116330,26311.2,100000000.0,5.35092e-06,0.733809,0.953308,0.94,0.26881,0.082273,0.000169958,0.000434694,0.966395,0.0,1683.0,1235.0,
85,44247.2,2.44e+12,1.0,0.0,1193.33,1345.92,0.0171939,0.705552,1.79e+05,116540,27468.5,100000000.0,5.34981e-06,0.733809,0.965066,0.94,0.277875,0.0996318,0.000165053,0.000409585,0.964402,0.0,1683.0,1235.0,
86,44749.6,2.49e+12,1.0,0.0,1181.03,1061.6,0.0415226,0.963766,1.79e+05,115861,25464.1,100000000.0,5.34628e-06,0.733809,0.968507,0.94,0.274284,0.0366592,0.000173553,0.000491456,0.981861,0.0,1683.0,1235.0,
87,45255,2.43e+12,1.0,0.0,1198.07,1138.04,0.014528,0.849945,1.79e+05,115901,32167.1,100000000.0,5.34398e-06,0.733809,0.972281,0.94,0.274941,0.0555075,0.000174374,0.000462615,0.97767,0.0,1683.0,1235.0,
88,45755.4,2.46e+12,1.0,0.0,1194.33,1093.31,0.0152016,0.867084,1.79e+05,115486,30008.4,100000000.0,5.34246e-06,0.733809,0.969831,0.94,0.273348,0.0362203,0.000174455,0.000484044,0.983357,0.0,1683.0,1235.0,
89,46270.1,2.51e+12,1.0,0.0,1191.09,1088.42,0.0132548,0.699765,1.79e+05,114878,28360.3,100000000.0,5.33996e-06,0.733809,0.965997,0.94,0.270225,0.0865851,0.000175831,0.000386903,0.99892,0.0,1683.0,1235.0,
90,46776.8,2.51e+12,1.0,0.0,1188.98,1153.87,0.0127099,0.615402,1.79e+05,114861,32545.6,100000000.0,5.33863e-06,0.733809,0.964738,0.94,0.269143,0.0861152,0.000176154,0.00038923,0.998148,0.0,1683.0,1235.0,
91,47286.1,2.44e+12,1.0,0.0,1203.53,888.501,0.0114965,0.767436,1.79e+05,114543,38055.3,100000000.0,5.33594e-06,0.733809,0.976358,0.94,0.275549,0.167094,0.000175205,0.000249045,1.02236,0.0,1683.0,1235.0,
92,47791.8,2.46e+12,1.0,0.0,1197.83,1037.82,0.0133579,0.570739,1.79e+05,114639,38423.4,100000000.0,5.33503e-06,0.733809,0.971014,0.94,0.273547,0.1943,0.000174305,0.000208454,1.02041,0.0,1683.0,1235.0,
93,48292.3,2.44e+12,1.0,0.0,1200.99,937.588,0.0158811,0.682734,1.79e+05,113467,39747.3,100000000.0,5.33344e-06,0.733809,0.975422,0.94,0.276147,0.105606,0.00017334,0.000331353,1.02135,0.0,1683.0,1235.0,
94,48780.7,2.43e+12,1.0,0.0,1199.45,867.557,0.0163133,0.730602,1.79e+05,112225,39721.2,100000000.0,5.33242e-06,0.733809,0.97567,0.94,0.274303,0.0327963,0.000175638,0.000427534,1.02487,0.0,1683.0,1235.0,
95,49272.4,2.44e+12,1.0,0.0,1175.19,849.92,0.0479147,0.739863,1.79e+05,111165,38291.8,100000000.0,5.33222e-06,0.733809,0.972496,0.94,0.274061,0.0322714,0.000171589,0.000424421,1.02448,0.0,1683.0,1235.0,
96,49764.7,2.44e+12,1.0,0.0,1191.3,944.86,0.0365225,0.552249,1.79e+05,111522,38572.7,100000000.0,5.33134e-06,0.733809,0.979174,0.94,0.278562,0.144872,0.000169894,0.000253087,1.02464,0.0,1683.0,1235.0,
97,50281.4,2.44e+12,1.0,0.0,1190.58,954.81,0.0294741,0.521129,1.79e+05,111210,38643.8,100000000.0,5.33112e-06,0.733809,0.977291,0.94,0.277792,0.141261,0.000168128,0.000255828,1.02601,0.0,1683.0,1235.0,
98,50776.3,2.43e+12,1.0,0.0,1183.15,904.786,0.0435295,0.581986,1.79e+05,110453,39262.2,100000000.0,5.33087e-06,0.733809,0.980465,0.94,0.27798,0.128399,0.000169061,0.000272459,1.02236,0.0,1683.0,1235.0,
99,51295.1,2.42e+12,1.0,0.0,1167.74,897.235,0.0694315,0.553281,1.80e+05,109882,39323.4,100000000.0,5.33076e-06,0.733809,0.979528,0.94,0.27784,0.130223,0.000168549,0.000264899,1.02565,0.0,1683.0,1235.0,
100,51798.1,2.43e+12,1.0,0.0,1166.12,880.508,0.0739588,0.555121,1.80e+05,109682,39663.4,100000000.0,5.33063e-06,0.733809,0.981959,0.94,0.27951,0.138385,0.000167,0.000252045,1.02663,0.0,1683.0,1235.0,
101,52300.4,2.42e+12,1.0,0.0,1158.78,845.31,0.08522,0.596582,1.80e+05,109385,39841.2,100000000.0,5.33047e-06,0.733809,0.982574,0.94,0.280616,0.153645,0.000164812,0.000228625,1.02493,0.0,1683.0,1235.0,
102,52793.8,2.42e+12,1.0,0.0,1143.93,792.113,0.106304,0.639058,1.80e+05,108700,39837.3,100000000.0,5.33029e-06,0.733809,0.983,0.94,0.282102,0.156958,0.000161101,0.000220991,1.02609,0.0,1683.0,1235.0,
103,53279.8,2.42e+12,1.0,0.0,1124.36,700.385,0.130974,0.739103,1.80e+05,107657,39796.9,100000000.0,5.33016e-06,0.733809,0.983005,0.94,0.283822,0.147821,0.000155607,0.000231198,1.02541,0.0,1683.0,1235.0,
104,53769.9,2.41e+12,1.0,0.0,1121.04,648.031,0.131684,0.815638,1.80e+05,107298,39653,100000000.0,5.33011e-06,0.733809,0.982529,0.94,0.284646,0.139821,0.00015258,0.000242114,1.0236,0.0,1683.0,1235.0,
105,54265.1,2.41e+12,1.0,0.0,1106.25,566.688,0.150225,0.909813,1.80e+05,106342,39149.4,100000000.0,5.33e-06,0.733809,0.98191,0.94,0.287072,0.127203,0.000146044,0.000256715,1.02298,0.0,1683.0,1235.0,
106,54758.7,2.37e+12,1.0,0.0,1145.34,564.249,0.074736,0.888663,1.80e+05,106249,39404.4,100000000.0,5.32991e-06,0.733809,0.985487,0.94,0.296439,0.100211,0.000128902,0.000294709,1.02607,0.0,1683.0,1235.0,
107,55264.9,2.38e+12,1.0,0.0,1122.42,475.042,0.110071,1.01534,1.81e+05,105374,38354.2,100000000.0,5.32968e-06,0.733809,0.983583,0.94,0.29616,0.100058,0.000127224,0.000291502,1.02241,0.0,1683.0,1235.0,
108,55781.9,2.38e+12,1.0,0.0,1126.83,463.889,0.102991,1.03345,1.81e+05,105431,39227.6,100000000.0,5.32959e-06,0.733809,0.985976,0.94,0.297557,0.0929768,0.000126051,0.000304315,1.02168,0.0,1683.0,1235.0,
109,56290.9,2.37e+12,1.0,0.0,1131.29,473.702,0.0900896,1.03324,1.81e+05,105362,38874.3,100000000.0,5.32954e-06,0.733809,0.985097,0.94,0.298905,0.0830479,0.000121964,0.000320001,1.02015,0.0,1683.0,1235.0,
110,56806.7,2.39e+12,1.0,0.0,1121.3,468.015,0.10327,1.02783,1.81e+05,104901,38195.9,100000000.0,5.32943e-06,0.733809,0.984334,0.94,0.30105,0.0896244,0.00011685,0.000308592,1.01995,0.0,1683.0,1235.0,
111,57328.9,2.40e+12,1.0,0.0,1122.71,472.184,0.0859382,1.00828,1.81e+05,103868,37733.2,100000000.0,5.32925e-06,0.733809,0.986147,0.94,0.306231,0.0723766,0.00010434,0.00033323,1.01621,0.0,1683.0,1235.0,
112,57851,2.43e+12,1.0,0.0,1120.11,483.838,0.076633,0.993349,1.82e+05,102616,36934.1,100000000.0,5.32911e-06,0.733809,0.989013,0.94,0.314431,0.0581809,8.73501e-05,0.000354708,1.0087,0.0,1683.0,1235.0,
113,58383.3,2.40e+12,1.0,0.0,1115.39,438.043,0.0932426,1.01752,1.81e+05,103062,38350.7,100000000.0,5.32898e-06,0.733809,0.988454,0.94,0.309449,0.050376,9.85282e-05,0.000363091,1.01806,0.0,1683.0,1235.0,
114,58904.8,2.41e+12,1.0,0.0,1113.41,436.447,0.0861466,1.0106,1.82e+05,102285,37604.3,100000000.0,5.32883e-06,0.733809,0.988348,0.94,0.31336,0.0419513,8.86821e-05,0.00037368,1.01585,0.0,1683.0,1235.0,
115,59469.4,2.41e+12,1.0,0.0,1114.24,436.084,0.0849155,1.00979,1.82e+05,102306,37797.2,100000000.0,5.32881e-06,0.733809,0.98934,0.94,0.31339,0.0371142,8.91868e-05,0.000381803,1.01586,0.0,1683.0,1235.0,
116,60039.6,2.41e+12,1.0,0.0,1114.96,440.888,0.085554,1.00394,1.82e+05,102453,38288.4,100000000.0,5.3288e-06,0.733809,0.9893,0.94,0.313419,0.0363392,8.97522e-05,0.000383381,1.01678,0.0,1683.0,1235.0,