File: results/E_Glass/E_Glass_linear_tga_M/E_Glass_linear_tga_M_0_cone_BT.csv
# Time [s], Temperature [C]
0.000000000000000000e+00,25
2,25
4,25
6,25
8,25.0002
10,25.0015
12,25.0069
14,25.0233
16,25.0612
18,25.1337
20,25.2547
22,25.4376
24,25.6935
26,26.0316
28,26.4588
30,26.9795
32,27.5963
34,28.3101
36,29.1206
38,30.026
40,31.0241
42,32.112
44,33.2862
46,34.5428
48,35.878
50,37.2878
52,38.768
54,40.3147
56,41.9239
58,43.5915
60,45.3139
62,47.0874
64,48.9086
66,50.774
68,52.6804
70,54.6249
72,56.6044
74,58.6163
76,60.658
78,62.7269
80,64.8208
82,66.9374
84,69.0747
86,71.2307
88,73.4035
90,75.5916
92,77.7931
94,80.0066
96,82.2306
98,84.4638
100,86.7048
102,88.9525
104,91.2059
106,93.4636
108,95.725
110,97.9889
112,100.254
114,102.521
116,104.788
118,107.054
120,109.318
122,111.581
124,113.841
126,116.099
128,118.352
130,120.602
132,122.847
134,125.087
136,127.322
138,129.551
140,131.773
142,133.99
144,136.2
146,138.402
148,140.598
150,142.786
152,144.966
154,147.139
156,149.303
158,151.459
160,153.606
162,155.745
164,157.875
166,159.996
168,162.108
170,164.211
172,166.304
174,168.389
176,170.463
178,172.529
180,174.584
182,176.63
184,178.666
186,180.692
188,182.709
190,184.715
192,186.711
194,188.698
196,190.674
198,192.64
200,194.596
202,196.542
204,198.478
206,200.403
208,202.318
210,204.223
212,206.118
214,208.002
216,209.876
218,211.739
220,213.592
222,215.435
224,217.267
226,219.089
228,220.9
230,222.701
232,224.491
234,226.271
236,228.04
238,229.798
240,231.546
242,233.284
244,235.011
246,236.727
248,238.432
250,240.127
252,241.811
254,243.485
256,245.147
258,246.799
260,248.44
262,250.071
264,251.69
266,253.298
268,254.896
270,256.482
272,258.058
274,259.623
276,261.176
278,262.718
280,264.249
282,265.769
284,267.278
286,268.775
288,270.262
290,271.736
292,273.2
294,274.651
296,276.092
298,277.52
300,278.937
302,280.343
304,281.736
306,283.118
308,284.488
310,285.846
312,287.192
314,288.526
316,289.848
318,291.158
320,292.456
322,293.741
324,295.014
326,296.274
328,297.522
330,298.757
332,299.98
334,301.19
336,302.387
338,303.572
340,304.743
342,305.902
344,307.047
346,308.18
348,309.299
350,310.405
352,311.497
354,312.577
356,313.643
358,314.695
360,315.734
362,316.76
364,317.772
366,318.771
368,319.755
370,320.727
372,321.684
374,322.628
376,323.558
378,324.475
380,325.377
382,326.267
384,327.142
386,328.004
388,328.852
390,329.686
392,330.507
394,331.314
396,332.108
398,332.888
400,333.655
402,334.408
404,335.149
406,335.876
408,336.59
410,337.291
412,337.979
414,338.654
416,339.317
418,339.967
420,340.605
422,341.23
424,341.844
426,342.445
428,343.034
430,343.612
432,344.179
434,344.734
436,345.278
438,345.81
440,346.333
442,346.844
444,347.345
446,347.836
448,348.317
450,348.789
452,349.25
454,349.703
456,350.146
458,350.58
460,351.005
462,351.422
464,351.831
466,352.232
468,352.625
470,353.01
472,353.388
474,353.758
476,354.122
478,354.479
480,354.829
482,355.173
484,355.511
486,355.843
488,356.169
490,356.49
492,356.805
494,357.116
496,357.421
498,357.722
500,358.018
502,358.31
504,358.597
506,358.881
508,359.161
510,359.437
512,359.709
514,359.978
516,360.245
518,360.508
520,360.768
522,361.025
524,361.28
526,361.533
528,361.783
530,362.031
532,362.277
534,362.521
536,362.763
538,363.004
540,363.243
542,363.48
544,363.717
546,363.952
548,364.186
550,364.419
552,364.651
554,364.882
556,365.112
558,365.342
560,365.571
562,365.8
564,366.028
566,366.256
568,366.484
570,366.712
572,366.94
574,367.167
576,367.395
578,367.623
580,367.851
582,368.079
584,368.307
586,368.536
588,368.766
590,368.996
592,369.226
594,369.457
596,369.689
598,369.921
600,370.154
602,370.388
604,370.623
606,370.859
608,371.096
610,371.334
612,371.573
614,371.812
616,372.054
618,372.296
620,372.539
622,372.784
624,373.03
626,373.278
628,373.527
630,373.777
632,374.029
634,374.282
636,374.537
638,374.794
640,375.052
642,375.312
644,375.574
646,375.837
648,376.102
650,376.369
652,376.638
654,376.909
656,377.182
658,377.457
660,377.734
662,378.013
664,378.294
666,378.578
668,378.863
670,379.151
672,379.442
674,379.734
676,380.029
678,380.327
680,380.626
682,380.929
684,381.234
686,381.541
688,381.852
690,382.165
692,382.48
694,382.799
696,383.12
698,383.445
700,383.772
702,384.102
704,384.435
706,384.772
708,385.111
710,385.454
712,385.8
714,386.149
716,386.502
718,386.857
720,387.217
722,387.58
724,387.946
726,388.316
728,388.69
730,389.067
732,389.449
734,389.834
736,390.222
738,390.615
740,391.012
742,391.413
744,391.818
746,392.227
748,392.64
750,393.057
752,393.479
754,393.905
756,394.335
758,394.77
760,395.209
762,395.653
764,396.101
766,396.553
768,397.011
770,397.473
772,397.939
774,398.41
776,398.886
778,399.367
780,399.852
782,400.342
784,400.837
786,401.337
788,401.841
790,402.349
792,402.863
794,403.381
796,403.903
798,404.43
800,404.962
802,405.498
804,406.038
806,406.583
808,407.131
810,407.683
812,408.24
814,408.8
816,409.363
818,409.931
820,410.501
822,411.074
824,411.65
826,412.229
828,412.811
830,413.394
832,413.98
834,414.567
836,415.155
838,415.745
840,416.335
842,416.926
844,417.517
846,418.108
848,418.699
850,419.289
852,419.878
854,420.466
856,421.052
858,421.636
860,422.217
862,422.796
864,423.372
866,423.945
868,424.515
870,425.081
872,425.643
874,426.201
876,426.754
878,427.303
880,427.847
882,428.386
884,428.921
886,429.45
888,429.974
890,430.492
892,431.006
894,431.513
896,432.016
898,432.513
900,433.004
902,433.49
904,433.971
906,434.446
908,434.916
910,435.381
912,435.84
914,436.294
916,436.744
918,437.188
920,437.627
922,438.061
924,438.49
926,438.915
928,439.335
930,439.75
932,440.161
934,440.567
936,440.969
938,441.367
940,441.761
942,442.15
944,442.535
946,442.916
948,443.293
950,443.666
952,444.036
954,444.401
956,444.763
958,445.121
960,445.475
962,445.826
964,446.173
966,446.517
968,446.857
970,447.194
972,447.527
974,447.857
976,448.184
978,448.507
980,448.827
982,449.144
984,449.458
986,449.768
988,450.076
990,450.38
992,450.682
994,450.98
996,451.275
998,451.568
1000,451.857
1000,451.857
1000,451.857
1010,453.262
1010,453.262
1010,453.262
1010,453.262
1010,453.262
1020,454.599
1020,454.599
1020,454.599
1020,454.599
1020,454.599
1030,455.871
1030,455.871
1030,455.871
1030,455.871
1030,455.871
1040,457.081
1040,457.081
1040,457.081
1040,457.081
1040,457.081
1050,458.232
1050,458.232
1050,458.232
1050,458.232
1050,458.232
1060,459.327
1060,459.327
1060,459.327
1060,459.327
1060,459.327
1070,460.369
1070,460.369
1070,460.369
1070,460.369
1070,460.369
1080,461.36
1080,461.36
1080,461.36
1080,461.36
1080,461.36
1090,462.304
1090,462.304
1090,462.304
1090,462.304
1090,462.304
1100,463.201
1100,463.201
1100,463.201
1100,463.201
1100,463.201
1110,464.055
1110,464.055
1110,464.055
1110,464.055
1110,464.055
1120,464.867
1120,464.867
1120,464.867
1120,464.867
1120,464.867
1130,465.64
1130,465.64
1130,465.64
1130,465.64
1130,465.64
1140,466.375
1140,466.375
1140,466.375
1140,466.375
1140,466.375
1150,467.075
1150,467.075
1150,467.075
1150,467.075
1150,467.075
1160,467.741
1160,467.741
1160,467.741
1160,467.741
1160,467.741
1170,468.374
1170,468.374
1170,468.374
1170,468.374
1170,468.374
1180,468.976
1180,468.976
1180,468.976
1180,468.976
1180,468.976
1190,469.549
1190,469.549
1190,469.549
1190,469.549
1190,469.549
1200,470.095
1200,470.095
1200,470.095
1200,470.095
1200,470.095
1210,470.613
1210,470.613
1210,470.613
1210,470.613
1210,470.613
1220,471.107
1220,471.107
1220,471.107
1220,471.107
1220,471.107
1230,471.577
1230,471.577
1230,471.577
1230,471.577
1230,471.577
1240,472.023
1240,472.023
1240,472.023
1240,472.023
1240,472.023
1250,472.448
1250,472.448
1250,472.448
1250,472.448
1250,472.448
1260,472.853
1260,472.853
1260,472.853
1260,472.853
1260,472.853
1270,473.237
1270,473.237
1270,473.237
1270,473.237
1270,473.237
1280,473.603
1280,473.603
1280,473.603
1280,473.603
1280,473.603
1290,473.951
1290,473.951
1290,473.951
1290,473.951
1290,473.951
1300,474.282
1300,474.282
1300,474.282
1300,474.282
1300,474.282
1310,474.598
1310,474.598
1310,474.598
1310,474.598
1310,474.598
1320,474.897
1320,474.897
1320,474.897
1320,474.897
1320,474.897
1330,475.182
1330,475.182
1330,475.182
1330,475.182
1330,475.182
1340,475.454
1340,475.454
1340,475.454
1340,475.454
1340,475.454
1350,475.712
1350,475.712
1350,475.712
1350,475.712
1350,475.712
1360,475.957
1360,475.957
1360,475.957
1360,475.957
1360,475.957
1370,476.191
1370,476.191
1370,476.191
1370,476.191
1370,476.191
1380,476.413
1380,476.413
1380,476.413
1380,476.413
1380,476.413
1390,476.625
1390,476.625
1390,476.625
1390,476.625
1390,476.625
1400,476.826
1400,476.826
1400,476.826
1400,476.826
1400,476.826
1410,477.017
1410,477.017
1410,477.017
1410,477.017
1410,477.017
1420,477.199
1420,477.199
1420,477.199
1420,477.199
1420,477.199
1430,477.372
1430,477.372
1430,477.372
1430,477.372
1430,477.372
1440,477.537
1440,477.537
1440,477.537
1440,477.537
1440,477.537
1450,477.694
1450,477.694
1450,477.694
1450,477.694
1450,477.694
1460,477.843
1460,477.843
1460,477.843
1460,477.843
1460,477.843
1470,477.984
1470,477.984
1470,477.984
1470,477.984
1470,477.984
1480,478.119
1480,478.119
1480,478.119
1480,478.119
1480,478.119
1490,478.248
1490,478.248
1490,478.248
1490,478.248
1490,478.248
1500,478.37
1500,478.37
1500,478.37
1500,478.37
1500,478.37
1510,478.486
1510,478.486
1510,478.486
1510,478.486
1510,478.486
1520,478.596
1520,478.596
1520,478.596
1520,478.596
1520,478.596
1530,478.702
1530,478.702
1530,478.702
1530,478.702
1530,478.702
1540,478.802
1540,478.802
1540,478.802
1540,478.802
1540,478.802
1550,478.897
1550,478.897
1550,478.897
1550,478.897
1550,478.897
1560,478.987
1560,478.987
1560,478.987
1560,478.987
1560,478.987
1570,479.073
1570,479.073
1570,479.073
1570,479.073
1570,479.073
1580,479.155
1580,479.155
1580,479.155
1580,479.155
1580,479.155
1590,479.233
1590,479.233
1590,479.233
1590,479.233
1590,479.233
1600,479.307
1600,479.307
1600,479.307
1600,479.307
1600,479.307
1610,479.378
1610,479.378
1610,479.378
1610,479.378
1610,479.378
1620,479.445
1620,479.445
1620,479.445
1620,479.445
1620,479.445
1630,479.509
1630,479.509
1630,479.509
1630,479.509
1630,479.509
1640,479.569
1640,479.569
1640,479.569
1640,479.569
1640,479.569
1650,479.627
1650,479.627
1650,479.627
1650,479.627
1650,479.627
1660,479.682
1660,479.682
1660,479.682
1660,479.682
1660,479.682
1670,479.734
1670,479.734
1670,479.734
1670,479.734
1670,479.734
1680,479.784
1680,479.784
1680,479.784
1680,479.784
1680,479.784
1690,479.831
1690,479.831
1690,479.831
1690,479.831
1690,479.831
1700,479.876
1700,479.876
1700,479.876
1700,479.876
1700,479.876
1710,479.919
1710,479.919
1710,479.919
1710,479.919
1710,479.919
1720,479.96
1720,479.96
1720,479.96
1720,479.96
1720,479.96
1730,479.999
1730,479.999
1730,479.999
1730,479.999
1730,479.999
1740,480.035
1740,480.035
1740,480.035
1740,480.035
1740,480.035
1750,480.071
1750,480.071
1750,480.071
1750,480.071
1750,480.071
1760,480.104
1760,480.104
1760,480.104
1760,480.104
1760,480.104
1770,480.136
1770,480.136
1770,480.136
1770,480.136
1770,480.136
1780,480.166
1780,480.166
1780,480.166
1780,480.166
1780,480.166
1790,480.195
1790,480.195
1790,480.195
1790,480.195
1790,480.195
1800,480.222
1800,480.222
1800,480.222