File: results/E_Glass/E_Glass_linear_tga_M/E_Glass_linear_tga_M_0_cone_Bh.csv
# Time [s], Convective Heat Transfer Coefficient [W/m2K]
0.000000000000000000e+00,0.000000000000000000e+00
2,0.000000000000000000e+00
4,0.000000000000000000e+00
6,0.0357403
8,0.0878407
10,0.172318
12,0.289542
14,0.434114
16,0.5989
18,0.77719
20,0.963563
22,1.15395
24,1.34541
26,1.53586
28,1.72388
30,1.90851
32,2.08911
34,2.2653
36,2.43685
38,2.60366
40,2.76572
42,2.92308
44,3.07582
46,3.22405
48,3.36791
50,3.50753
52,3.64307
54,3.77468
56,3.9025
58,4.02669
60,4.14739
62,4.26473
64,4.37887
66,4.48991
68,4.59799
70,4.70323
72,4.80573
74,4.90562
76,5.00298
78,5.09793
80,5.19055
82,5.28093
84,5.36916
86,5.45532
88,5.53948
90,5.62173
92,5.70211
94,5.78072
96,5.8576
98,5.93282
100,6.00643
102,6.0785
104,6.14906
106,6.21818
108,6.28591
110,6.35227
112,6.41733
114,6.48112
116,6.54368
118,6.60505
120,6.66527
122,6.72437
124,6.78238
126,6.83934
128,6.89528
130,6.95023
132,7.00421
134,7.05726
136,7.10939
138,7.16065
140,7.21104
142,7.2606
144,7.30934
146,7.35729
148,7.40446
150,7.45089
152,7.49658
154,7.54156
156,7.58585
158,7.62945
160,7.67239
162,7.71469
164,7.75636
166,7.79742
168,7.83787
170,7.87774
172,7.91703
174,7.95576
176,7.99395
178,8.0316
180,8.06874
182,8.10535
184,8.14147
186,8.1771
188,8.21225
190,8.24693
192,8.28115
194,8.31492
196,8.34824
198,8.38114
200,8.41361
202,8.44567
204,8.47731
206,8.50856
208,8.53941
210,8.56988
212,8.59998
214,8.62969
216,8.65905
218,8.68804
220,8.71669
222,8.74498
224,8.77294
226,8.80056
228,8.82785
230,8.85482
232,8.88146
234,8.9078
236,8.93382
238,8.95954
240,8.98496
242,9.01008
244,9.03491
246,9.05946
248,9.08372
250,9.1077
252,9.13141
254,9.15484
256,9.178
258,9.2009
260,9.22354
262,9.24591
264,9.26804
266,9.2899
268,9.31152
270,9.33289
272,9.35402
274,9.3749
276,9.39555
278,9.41596
280,9.43613
282,9.45607
284,9.47578
286,9.49526
288,9.51452
290,9.53355
292,9.55236
294,9.57095
296,9.58932
298,9.60747
300,9.62541
302,9.64313
304,9.66064
306,9.67795
308,9.69504
310,9.71192
312,9.7286
314,9.74507
316,9.76134
318,9.7774
320,9.79327
322,9.80893
324,9.82439
326,9.83965
328,9.85472
330,9.86959
332,9.88426
334,9.89873
336,9.91302
338,9.9271
340,9.941
342,9.9547
344,9.96822
346,9.98154
348,9.99467
350,10.0076
352,10.0204
354,10.0329
356,10.0453
358,10.0575
360,10.0695
362,10.0814
364,10.093
366,10.1045
368,10.1157
370,10.1268
372,10.1378
374,10.1485
376,10.1591
378,10.1694
380,10.1796
382,10.1897
384,10.1995
386,10.2092
388,10.2187
390,10.2281
392,10.2373
394,10.2463
396,10.2551
398,10.2638
400,10.2723
402,10.2807
404,10.2889
406,10.2969
408,10.3048
410,10.3125
412,10.3201
414,10.3275
416,10.3347
418,10.3419
420,10.3488
422,10.3557
424,10.3624
426,10.3689
428,10.3753
430,10.3816
432,10.3878
434,10.3938
436,10.3997
438,10.4054
440,10.4111
442,10.4166
444,10.422
446,10.4273
448,10.4325
450,10.4375
452,10.4425
454,10.4473
456,10.4521
458,10.4567
460,10.4613
462,10.4657
464,10.4701
466,10.4744
468,10.4786
470,10.4827
472,10.4867
474,10.4907
476,10.4945
478,10.4983
480,10.502
482,10.5057
484,10.5093
486,10.5128
488,10.5162
490,10.5196
492,10.523
494,10.5262
496,10.5295
498,10.5326
500,10.5358
502,10.5388
504,10.5419
506,10.5449
508,10.5478
510,10.5507
512,10.5536
514,10.5564
516,10.5592
518,10.562
520,10.5647
522,10.5674
524,10.5701
526,10.5727
528,10.5753
530,10.5779
532,10.5805
534,10.583
536,10.5856
538,10.5881
540,10.5906
542,10.5931
544,10.5955
546,10.598
548,10.6004
550,10.6028
552,10.6053
554,10.6077
556,10.6101
558,10.6124
560,10.6148
562,10.6172
564,10.6196
566,10.6219
568,10.6243
570,10.6267
572,10.629
574,10.6314
576,10.6337
578,10.6361
580,10.6385
582,10.6408
584,10.6432
586,10.6455
588,10.6479
590,10.6503
592,10.6527
594,10.655
596,10.6574
598,10.6598
600,10.6622
602,10.6646
604,10.6671
606,10.6695
608,10.6719
610,10.6744
612,10.6768
614,10.6793
616,10.6818
618,10.6842
620,10.6867
622,10.6892
624,10.6918
626,10.6943
628,10.6968
630,10.6994
632,10.702
634,10.7046
636,10.7072
638,10.7098
640,10.7124
642,10.7151
644,10.7177
646,10.7204
648,10.7231
650,10.7258
652,10.7286
654,10.7313
656,10.7341
658,10.7369
660,10.7397
662,10.7425
664,10.7454
666,10.7483
668,10.7512
670,10.7541
672,10.757
674,10.76
676,10.763
678,10.766
680,10.769
682,10.772
684,10.7751
686,10.7782
688,10.7813
690,10.7845
692,10.7877
694,10.7909
696,10.7941
698,10.7974
700,10.8006
702,10.804
704,10.8073
706,10.8107
708,10.8141
710,10.8175
712,10.821
714,10.8244
716,10.828
718,10.8315
720,10.8351
722,10.8387
724,10.8424
726,10.8461
728,10.8498
730,10.8535
732,10.8573
734,10.8611
736,10.865
738,10.8689
740,10.8728
742,10.8768
744,10.8808
746,10.8848
748,10.8889
750,10.893
752,10.8972
754,10.9014
756,10.9056
758,10.9099
760,10.9142
762,10.9186
764,10.923
766,10.9274
768,10.9319
770,10.9364
772,10.941
774,10.9456
776,10.9502
778,10.9549
780,10.9597
782,10.9644
784,10.9692
786,10.9741
788,10.979
790,10.9839
792,10.9889
794,10.9939
796,10.999
798,11.0041
800,11.0092
802,11.0144
804,11.0196
806,11.0249
808,11.0301
810,11.0355
812,11.0408
814,11.0462
816,11.0516
818,11.057
820,11.0625
822,11.068
824,11.0735
826,11.079
828,11.0845
830,11.0901
832,11.0956
834,11.1012
836,11.1068
838,11.1124
840,11.118
842,11.1236
844,11.1292
846,11.1348
848,11.1403
850,11.1459
852,11.1514
854,11.157
856,11.1625
858,11.168
860,11.1734
862,11.1789
864,11.1842
866,11.1896
868,11.1949
870,11.2002
872,11.2055
874,11.2107
876,11.2158
878,11.2209
880,11.226
882,11.231
884,11.2359
886,11.2408
888,11.2457
890,11.2505
892,11.2552
894,11.2599
896,11.2646
898,11.2691
900,11.2737
902,11.2781
904,11.2826
906,11.2869
908,11.2912
910,11.2955
912,11.2997
914,11.3039
916,11.308
918,11.3121
920,11.3161
922,11.32
924,11.324
926,11.3278
928,11.3317
930,11.3355
932,11.3392
934,11.3429
936,11.3466
938,11.3502
940,11.3537
942,11.3573
944,11.3608
946,11.3642
948,11.3676
950,11.371
952,11.3744
954,11.3777
956,11.3809
958,11.3842
960,11.3874
962,11.3905
964,11.3937
966,11.3968
968,11.3998
970,11.4029
972,11.4059
974,11.4088
976,11.4118
978,11.4147
980,11.4176
982,11.4204
984,11.4232
986,11.426
988,11.4288
990,11.4315
992,11.4342
994,11.4369
996,11.4395
998,11.4421
1000,11.4447
1000,11.4447
1000,11.4447
1010,11.4572
1010,11.4572
1010,11.4572
1010,11.4572
1010,11.4572
1020,11.4692
1020,11.4692
1020,11.4692
1020,11.4692
1020,11.4692
1030,11.4805
1030,11.4805
1030,11.4805
1030,11.4805
1030,11.4805
1040,11.4912
1040,11.4912
1040,11.4912
1040,11.4912
1040,11.4912
1050,11.5014
1050,11.5014
1050,11.5014
1050,11.5014
1050,11.5014
1060,11.5111
1060,11.5111
1060,11.5111
1060,11.5111
1060,11.5111
1070,11.5203
1070,11.5203
1070,11.5203
1070,11.5203
1070,11.5203
1080,11.529
1080,11.529
1080,11.529
1080,11.529
1080,11.529
1090,11.5373
1090,11.5373
1090,11.5373
1090,11.5373
1090,11.5373
1100,11.5452
1100,11.5452
1100,11.5452
1100,11.5452
1100,11.5452
1110,11.5527
1110,11.5527
1110,11.5527
1110,11.5527
1110,11.5527
1120,11.5598
1120,11.5598
1120,11.5598
1120,11.5598
1120,11.5598
1130,11.5666
1130,11.5666
1130,11.5666
1130,11.5666
1130,11.5666
1140,11.573
1140,11.573
1140,11.573
1140,11.573
1140,11.573
1150,11.5791
1150,11.5791
1150,11.5791
1150,11.5791
1150,11.5791
1160,11.5849
1160,11.5849
1160,11.5849
1160,11.5849
1160,11.5849
1170,11.5904
1170,11.5904
1170,11.5904
1170,11.5904
1170,11.5904
1180,11.5957
1180,11.5957
1180,11.5957
1180,11.5957
1180,11.5957
1190,11.6007
1190,11.6007
1190,11.6007
1190,11.6007
1190,11.6007
1200,11.6054
1200,11.6054
1200,11.6054
1200,11.6054
1200,11.6054
1210,11.6099
1210,11.6099
1210,11.6099
1210,11.6099
1210,11.6099
1220,11.6142
1220,11.6142
1220,11.6142
1220,11.6142
1220,11.6142
1230,11.6183
1230,11.6183
1230,11.6183
1230,11.6183
1230,11.6183
1240,11.6222
1240,11.6222
1240,11.6222
1240,11.6222
1240,11.6222
1250,11.6258
1250,11.6258
1250,11.6258
1250,11.6258
1250,11.6258
1260,11.6293
1260,11.6293
1260,11.6293
1260,11.6293
1260,11.6293
1270,11.6327
1270,11.6327
1270,11.6327
1270,11.6327
1270,11.6327
1280,11.6358
1280,11.6358
1280,11.6358
1280,11.6358
1280,11.6358
1290,11.6388
1290,11.6388
1290,11.6388
1290,11.6388
1290,11.6388
1300,11.6417
1300,11.6417
1300,11.6417
1300,11.6417
1300,11.6417
1310,11.6444
1310,11.6444
1310,11.6444
1310,11.6444
1310,11.6444
1320,11.647
1320,11.647
1320,11.647
1320,11.647
1320,11.647
1330,11.6495
1330,11.6495
1330,11.6495
1330,11.6495
1330,11.6495
1340,11.6518
1340,11.6518
1340,11.6518
1340,11.6518
1340,11.6518
1350,11.654
1350,11.654
1350,11.654
1350,11.654
1350,11.654
1360,11.6562
1360,11.6562
1360,11.6562
1360,11.6562
1360,11.6562
1370,11.6582
1370,11.6582
1370,11.6582
1370,11.6582
1370,11.6582
1380,11.6601
1380,11.6601
1380,11.6601
1380,11.6601
1380,11.6601
1390,11.6619
1390,11.6619
1390,11.6619
1390,11.6619
1390,11.6619
1400,11.6636
1400,11.6636
1400,11.6636
1400,11.6636
1400,11.6636
1410,11.6653
1410,11.6653
1410,11.6653
1410,11.6653
1410,11.6653
1420,11.6668
1420,11.6668
1420,11.6668
1420,11.6668
1420,11.6668
1430,11.6683
1430,11.6683
1430,11.6683
1430,11.6683
1430,11.6683
1440,11.6698
1440,11.6698
1440,11.6698
1440,11.6698
1440,11.6698
1450,11.6711
1450,11.6711
1450,11.6711
1450,11.6711
1450,11.6711
1460,11.6724
1460,11.6724
1460,11.6724
1460,11.6724
1460,11.6724
1470,11.6736
1470,11.6736
1470,11.6736
1470,11.6736
1470,11.6736
1480,11.6748
1480,11.6748
1480,11.6748
1480,11.6748
1480,11.6748
1490,11.6759
1490,11.6759
1490,11.6759
1490,11.6759
1490,11.6759
1500,11.6769
1500,11.6769
1500,11.6769
1500,11.6769
1500,11.6769
1510,11.6779
1510,11.6779
1510,11.6779
1510,11.6779
1510,11.6779
1520,11.6789
1520,11.6789
1520,11.6789
1520,11.6789
1520,11.6789
1530,11.6798
1530,11.6798
1530,11.6798
1530,11.6798
1530,11.6798
1540,11.6806
1540,11.6806
1540,11.6806
1540,11.6806
1540,11.6806
1550,11.6814
1550,11.6814
1550,11.6814
1550,11.6814
1550,11.6814
1560,11.6822
1560,11.6822
1560,11.6822
1560,11.6822
1560,11.6822
1570,11.6829
1570,11.6829
1570,11.6829
1570,11.6829
1570,11.6829
1580,11.6836
1580,11.6836
1580,11.6836
1580,11.6836
1580,11.6836
1590,11.6843
1590,11.6843
1590,11.6843
1590,11.6843
1590,11.6843
1600,11.6849
1600,11.6849
1600,11.6849
1600,11.6849
1600,11.6849
1610,11.6856
1610,11.6856
1610,11.6856
1610,11.6856
1610,11.6856
1620,11.6861
1620,11.6861
1620,11.6861
1620,11.6861
1620,11.6861
1630,11.6867
1630,11.6867
1630,11.6867
1630,11.6867
1630,11.6867
1640,11.6872
1640,11.6872
1640,11.6872
1640,11.6872
1640,11.6872
1650,11.6877
1650,11.6877
1650,11.6877
1650,11.6877
1650,11.6877
1660,11.6882
1660,11.6882
1660,11.6882
1660,11.6882
1660,11.6882
1670,11.6886
1670,11.6886
1670,11.6886
1670,11.6886
1670,11.6886
1680,11.689
1680,11.689
1680,11.689
1680,11.689
1680,11.689
1690,11.6894
1690,11.6894
1690,11.6894
1690,11.6894
1690,11.6894
1700,11.6898
1700,11.6898
1700,11.6898
1700,11.6898
1700,11.6898
1710,11.6902
1710,11.6902
1710,11.6902
1710,11.6902
1710,11.6902
1720,11.6905
1720,11.6905
1720,11.6905
1720,11.6905
1720,11.6905
1730,11.6909
1730,11.6909
1730,11.6909
1730,11.6909
1730,11.6909
1740,11.6912
1740,11.6912
1740,11.6912
1740,11.6912
1740,11.6912
1750,11.6915
1750,11.6915
1750,11.6915
1750,11.6915
1750,11.6915
1760,11.6918
1760,11.6918
1760,11.6918
1760,11.6918
1760,11.6918
1770,11.692
1770,11.692
1770,11.692
1770,11.692
1770,11.692
1780,11.6923
1780,11.6923
1780,11.6923
1780,11.6923
1780,11.6923
1790,11.6926
1790,11.6926
1790,11.6926
1790,11.6926
1790,11.6926
1800,11.6928
1800,11.6928
1800,11.6928