File: results/E_Glass/E_Glass_linear_tga_M/E_Glass_linear_tga_M_0_cone_FT.csv
# Time [s], Temperature [C]
0.000000000000000000e+00,25
2,47.3634
4,69.4129
6,84.8462
8,97.1681
10,107.609
12,116.753
14,124.939
16,132.375
18,139.206
20,145.535
22,151.438
24,156.974
26,162.191
28,167.125
30,171.808
32,176.264
34,180.517
36,184.583
38,188.479
40,192.22
42,195.816
44,199.279
46,202.618
48,205.843
50,208.961
52,211.978
54,214.902
56,217.737
58,220.491
60,223.167
62,225.77
64,228.304
66,230.775
68,233.183
70,235.534
72,237.831
74,240.077
76,242.273
78,244.424
80,246.531
82,248.596
84,250.624
86,252.613
88,254.567
90,256.488
92,258.377
94,260.236
96,262.065
98,263.868
100,265.644
102,267.394
104,269.121
106,270.824
108,272.506
110,274.165
112,275.804
114,277.423
116,279.021
118,280.602
120,282.164
122,283.708
124,285.235
126,286.745
128,288.239
130,289.716
132,291.177
134,292.624
136,294.055
138,295.473
140,296.876
142,298.265
144,299.641
146,301.004
148,302.353
150,303.692
152,305.016
154,306.33
156,307.631
158,308.921
160,310.199
162,311.467
164,312.724
166,313.97
168,315.206
170,316.431
172,317.645
174,318.85
176,320.045
178,321.23
180,322.405
182,323.57
184,324.726
186,325.872
188,327.009
190,328.136
192,329.253
194,330.362
196,331.461
198,332.551
200,333.631
202,334.704
204,335.766
206,336.818
208,337.863
210,338.897
212,339.922
214,340.939
216,341.946
218,342.943
220,343.934
222,344.912
224,345.882
226,346.845
228,347.796
230,348.738
232,349.673
234,350.596
236,351.509
238,352.417
240,353.311
242,354.197
244,355.077
246,355.942
248,356.799
250,357.652
252,358.489
254,359.317
256,360.142
258,360.95
260,361.749
262,362.546
264,363.325
266,364.096
268,364.865
270,365.616
272,366.358
274,367.1
276,367.822
278,368.536
280,369.251
282,369.945
284,370.632
286,371.319
288,371.987
290,372.647
292,373.308
294,373.949
296,374.582
298,375.219
300,375.834
302,376.442
304,377.055
306,377.645
308,378.23
310,378.819
312,379.386
314,379.947
316,380.516
318,381.06
320,381.6
322,382.147
324,382.672
326,383.192
328,383.72
330,384.225
332,384.727
334,385.238
336,385.725
338,386.209
340,386.704
342,387.175
344,387.643
346,388.123
348,388.58
350,389.034
352,389.501
354,389.943
356,390.384
358,390.839
360,391.269
362,391.699
364,392.142
366,392.562
368,392.981
370,393.414
372,393.823
374,394.234
376,394.657
378,395.059
380,395.461
382,395.875
384,396.269
386,396.665
388,397.072
390,397.459
392,397.846
394,398.245
396,398.626
398,399.008
400,399.4
402,399.776
404,400.151
406,400.536
408,400.906
410,401.276
412,401.656
414,402.021
416,402.386
418,402.759
420,403.119
422,403.479
424,403.848
426,404.203
428,404.558
430,404.919
432,405.269
434,405.619
436,405.974
438,406.319
440,406.665
442,407.015
444,407.356
446,407.696
448,408.04
450,408.375
452,408.707
454,409.045
456,409.374
458,409.704
460,410.034
462,410.358
464,410.682
466,411.007
468,411.326
470,411.643
472,411.961
474,412.274
476,412.584
478,412.897
480,413.204
482,413.508
484,413.812
486,414.113
488,414.412
490,414.712
492,415.005
494,415.298
496,415.59
498,415.878
500,416.164
502,416.451
504,416.734
506,417.014
508,417.291
510,417.569
512,417.844
514,418.115
516,418.386
518,418.656
520,418.921
522,419.186
524,419.448
526,419.709
528,419.968
530,420.225
532,420.479
534,420.734
536,420.985
538,421.233
540,421.483
542,421.727
544,421.972
546,422.215
548,422.455
550,422.695
552,422.933
554,423.168
556,423.403
558,423.635
560,423.867
562,424.095
564,424.325
566,424.552
568,424.776
570,425.001
572,425.222
574,425.444
576,425.663
578,425.882
580,426.1
582,426.315
584,426.53
586,426.743
588,426.955
590,427.166
592,427.375
594,427.584
596,427.791
598,427.996
600,428.203
602,428.406
604,428.611
606,428.811
608,429.014
610,429.213
612,429.412
614,429.61
616,429.808
618,430.004
620,430.2
622,430.394
624,430.588
626,430.781
628,430.973
630,431.165
632,431.355
634,431.544
636,431.734
638,431.922
640,432.111
642,432.297
644,432.484
646,432.669
648,432.855
650,433.039
652,433.223
654,433.406
656,433.588
658,433.771
660,433.952
662,434.134
664,434.314
666,434.494
668,434.675
670,434.853
672,435.033
674,435.211
676,435.389
678,435.565
680,435.744
682,435.92
684,436.098
686,436.273
688,436.45
690,436.625
692,436.801
694,436.975
696,437.15
698,437.325
700,437.499
702,437.674
704,437.848
706,438.022
708,438.196
710,438.368
712,438.543
714,438.715
716,438.89
718,439.062
720,439.237
722,439.409
724,439.583
726,439.755
728,439.928
730,440.101
732,440.275
734,440.448
736,440.622
738,440.796
740,440.968
742,441.142
744,441.315
746,441.489
748,441.663
750,441.838
752,442.012
754,442.187
756,442.361
758,442.537
760,442.711
762,442.888
764,443.063
766,443.24
768,443.415
770,443.593
772,443.769
774,443.946
776,444.124
778,444.302
780,444.481
782,444.66
784,444.839
786,445.02
788,445.2
790,445.381
792,445.562
794,445.743
796,445.924
798,446.108
800,446.29
802,446.475
804,446.659
806,446.844
808,447.028
810,447.215
812,447.401
814,447.587
816,447.774
818,447.963
820,448.151
822,448.339
824,448.529
826,448.718
828,448.91
830,449.1
832,449.293
834,449.484
836,449.678
838,449.87
840,450.064
842,450.257
844,450.452
846,450.647
848,450.842
850,451.038
852,451.234
854,451.43
856,451.626
858,451.823
860,452.019
862,452.216
864,452.413
866,452.61
868,452.807
870,453.004
872,453.202
874,453.398
876,453.595
878,453.791
880,453.988
882,454.183
884,454.379
886,454.573
888,454.768
890,454.962
892,455.155
894,455.348
896,455.54
898,455.731
900,455.922
902,456.111
904,456.299
906,456.488
908,456.674
910,456.861
912,457.045
914,457.229
916,457.411
918,457.593
920,457.773
922,457.952
924,458.13
926,458.307
928,458.482
930,458.655
932,458.828
934,458.999
936,459.169
938,459.338
940,459.505
942,459.671
944,459.834
946,459.998
948,460.159
950,460.32
952,460.478
954,460.635
956,460.791
958,460.945
960,461.099
962,461.25
964,461.4
966,461.55
968,461.697
970,461.843
972,461.988
974,462.131
976,462.274
978,462.414
980,462.553
982,462.692
984,462.828
986,462.963
988,463.098
990,463.231
992,463.361
994,463.492
996,463.621
998,463.749
1000,463.876
1000,463.876
1000,463.876
1010,464.49
1010,464.49
1010,464.49
1010,464.49
1010,464.49
1020,465.075
1020,465.075
1020,465.075
1020,465.075
1020,465.075
1030,465.632
1030,465.632
1030,465.632
1030,465.632
1030,465.632
1040,466.162
1040,466.162
1040,466.162
1040,466.162
1040,466.162
1050,466.668
1050,466.668
1050,466.668
1050,466.668
1050,466.668
1060,467.148
1060,467.148
1060,467.148
1060,467.148
1060,467.148
1070,467.605
1070,467.605
1070,467.605
1070,467.605
1070,467.605
1080,468.041
1080,468.041
1080,468.041
1080,468.041
1080,468.041
1090,468.455
1090,468.455
1090,468.455
1090,468.455
1090,468.455
1100,468.849
1100,468.849
1100,468.849
1100,468.849
1100,468.849
1110,469.225
1110,469.225
1110,469.225
1110,469.225
1110,469.225
1120,469.582
1120,469.582
1120,469.582
1120,469.582
1120,469.582
1130,469.922
1130,469.922
1130,469.922
1130,469.922
1130,469.922
1140,470.246
1140,470.246
1140,470.246
1140,470.246
1140,470.246
1150,470.554
1150,470.554
1150,470.554
1150,470.554
1150,470.554
1160,470.846
1160,470.846
1160,470.846
1160,470.846
1160,470.846
1170,471.126
1170,471.126
1170,471.126
1170,471.126
1170,471.126
1180,471.391
1180,471.391
1180,471.391
1180,471.391
1180,471.391
1190,471.643
1190,471.643
1190,471.643
1190,471.643
1190,471.643
1200,471.884
1200,471.884
1200,471.884
1200,471.884
1200,471.884
1210,472.113
1210,472.113
1210,472.113
1210,472.113
1210,472.113
1220,472.33
1220,472.33
1220,472.33
1220,472.33
1220,472.33
1230,472.538
1230,472.538
1230,472.538
1230,472.538
1230,472.538
1240,472.734
1240,472.734
1240,472.734
1240,472.734
1240,472.734
1250,472.922
1250,472.922
1250,472.922
1250,472.922
1250,472.922
1260,473.1
1260,473.1
1260,473.1
1260,473.1
1260,473.1
1270,473.269
1270,473.269
1270,473.269
1270,473.269
1270,473.269
1280,473.431
1280,473.431
1280,473.431
1280,473.431
1280,473.431
1290,473.584
1290,473.584
1290,473.584
1290,473.584
1290,473.584
1300,473.731
1300,473.731
1300,473.731
1300,473.731
1300,473.731
1310,473.87
1310,473.87
1310,473.87
1310,473.87
1310,473.87
1320,474.002
1320,474.002
1320,474.002
1320,474.002
1320,474.002
1330,474.129
1330,474.129
1330,474.129
1330,474.129
1330,474.129
1340,474.248
1340,474.248
1340,474.248
1340,474.248
1340,474.248
1350,474.361
1350,474.361
1350,474.361
1350,474.361
1350,474.361
1360,474.471
1360,474.471
1360,474.471
1360,474.471
1360,474.471
1370,474.574
1370,474.574
1370,474.574
1370,474.574
1370,474.574
1380,474.672
1380,474.672
1380,474.672
1380,474.672
1380,474.672
1390,474.764
1390,474.764
1390,474.764
1390,474.764
1390,474.764
1400,474.853
1400,474.853
1400,474.853
1400,474.853
1400,474.853
1410,474.939
1410,474.939
1410,474.939
1410,474.939
1410,474.939
1420,475.019
1420,475.019
1420,475.019
1420,475.019
1420,475.019
1430,475.095
1430,475.095
1430,475.095
1430,475.095
1430,475.095
1440,475.167
1440,475.167
1440,475.167
1440,475.167
1440,475.167
1450,475.236
1450,475.236
1450,475.236
1450,475.236
1450,475.236
1460,475.304
1460,475.304
1460,475.304
1460,475.304
1460,475.304
1470,475.366
1470,475.366
1470,475.366
1470,475.366
1470,475.366
1480,475.425
1480,475.425
1480,475.425
1480,475.425
1480,475.425
1490,475.482
1490,475.482
1490,475.482
1490,475.482
1490,475.482
1500,475.536
1500,475.536
1500,475.536
1500,475.536
1500,475.536
1510,475.587
1510,475.587
1510,475.587
1510,475.587
1510,475.587
1520,475.635
1520,475.635
1520,475.635
1520,475.635
1520,475.635
1530,475.683
1530,475.683
1530,475.683
1530,475.683
1530,475.683
1540,475.727
1540,475.727
1540,475.727
1540,475.727
1540,475.727
1550,475.769
1550,475.769
1550,475.769
1550,475.769
1550,475.769
1560,475.809
1560,475.809
1560,475.809
1560,475.809
1560,475.809
1570,475.847
1570,475.847
1570,475.847
1570,475.847
1570,475.847
1580,475.883
1580,475.883
1580,475.883
1580,475.883
1580,475.883
1590,475.917
1590,475.917
1590,475.917
1590,475.917
1590,475.917
1600,475.95
1600,475.95
1600,475.95
1600,475.95
1600,475.95
1610,475.981
1610,475.981
1610,475.981
1610,475.981
1610,475.981
1620,476.011
1620,476.011
1620,476.011
1620,476.011
1620,476.011
1630,476.039
1630,476.039
1630,476.039
1630,476.039
1630,476.039
1640,476.067
1640,476.067
1640,476.067
1640,476.067
1640,476.067
1650,476.092
1650,476.092
1650,476.092
1650,476.092
1650,476.092
1660,476.117
1660,476.117
1660,476.117
1660,476.117
1660,476.117
1670,476.14
1670,476.14
1670,476.14
1670,476.14
1670,476.14
1680,476.162
1680,476.162
1680,476.162
1680,476.162
1680,476.162
1690,476.182
1690,476.182
1690,476.182
1690,476.182
1690,476.182
1700,476.202
1700,476.202
1700,476.202
1700,476.202
1700,476.202
1710,476.221
1710,476.221
1710,476.221
1710,476.221
1710,476.221
1720,476.239
1720,476.239
1720,476.239
1720,476.239
1720,476.239
1730,476.256
1730,476.256
1730,476.256
1730,476.256
1730,476.256
1740,476.272
1740,476.272
1740,476.272
1740,476.272
1740,476.272
1750,476.288
1750,476.288
1750,476.288
1750,476.288
1750,476.288
1760,476.302
1760,476.302
1760,476.302
1760,476.302
1760,476.302
1770,476.316
1770,476.316
1770,476.316
1770,476.316
1770,476.316
1780,476.33
1780,476.33
1780,476.33
1780,476.33
1780,476.33
1790,476.342
1790,476.342
1790,476.342
1790,476.342
1790,476.342
1800,476.354
1800,476.354
1800,476.354